{
  "resourceType": "Bundle",
  "id": "quickstart-medications-bundle",
  "type": "transaction",
  "entry": [
      {
          "resource": {
              "resourceType": "MedicationRequest",
              "id": "example-rec-10-patient-view-no-screenings-context",
              "extension": [
                  {
                      "url": "http://fhir.org/guides/cdc/opioid-cds/StructureDefinition/dataDateRoller",
                      "extension": [
                          {
                              "url": "dateLastUpdated",
                              "valueDateTime": "2023-05-01"
                          },
                          {
                              "url": "frequency",
                              "valueDuration": {
                                  "value": 30.0,
                                  "unit": "days",
                                  "system": "http://unitsofmeasure.org",
                                  "code": "d"
                              }
                          }
                      ]
                  }
              ],
              "status": "active",
              "intent": "order",
              "category": [
                  {
                      "coding": [
                          {
                              "system": "http://terminology.hl7.org/CodeSystem/medicationrequest-category",
                              "code": "community"
                          }
                      ]
                  }
              ],
              "medicationCodeableConcept": {
                  "coding": [
                      {
                          "system": "http://www.nlm.nih.gov/research/umls/rxnorm",
                          "code": "197696",
                          "display": "72 HR Fentanyl 0.075 MG/HR Transdermal System"
                      }
                  ]
              },
              "subject": {
                  "reference": "Patient/example-rec-10-patient-view-no-screenings"
              },
              "encounter": {
                  "reference": "Encounter/example-rec-10-patient-view-no-screenings-context"
              },
              "authoredOn": "2023-05-01",
              "dosageInstruction": [
                  {
                      "timing": {
                          "repeat": {
                              "frequency": 1,
                              "period": 12.0,
                              "periodUnit": "d"
                          }
                      },
                      "asNeededBoolean": false,
                      "doseAndRate": [
                          {
                              "doseQuantity": {
                                  "value": 1.0,
                                  "unit": "patch",
                                  "system": "http://unitsofmeasure.org",
                                  "code": "{patch}"
                              }
                          }
                      ]
                  }
              ],
              "dispenseRequest": {
                  "validityPeriod": {
                      "start": "2023-05-01T00:00:00-06:00",
                      "end": "2023-08-01T00:00:00-06:00"
                  },
                  "numberOfRepeatsAllowed": 3,
                  "expectedSupplyDuration": {
                      "value": 30.0,
                      "unit": "days",
                      "system": "http://unitsofmeasure.org",
                      "code": "d"
                  }
              }
          },
          "request": {
              "method": "PUT",
              "url": "MedicationRequest/example-rec-10-patient-view-no-screenings-context"
          }
      },
      {
          "resource": {
              "resourceType": "MedicationRequest",
              "id": "example-rec-10-patient-view-no-screenings-prefetch",
              "extension": [
                  {
                      "url": "http://fhir.org/guides/cdc/opioid-cds/StructureDefinition/dataDateRoller",
                      "extension": [
                          {
                              "url": "dateLastUpdated",
                              "valueDateTime": "2023-05-01"
                          },
                          {
                              "url": "frequency",
                              "valueDuration": {
                                  "value": 30.0,
                                  "unit": "days",
                                  "system": "http://unitsofmeasure.org",
                                  "code": "d"
                              }
                          }
                      ]
                  }
              ],
              "status": "active",
              "intent": "order",
              "category": [
                  {
                      "coding": [
                          {
                              "system": "http://terminology.hl7.org/CodeSystem/medicationrequest-category",
                              "code": "community"
                          }
                      ]
                  }
              ],
              "medicationCodeableConcept": {
                  "coding": [
                      {
                          "system": "http://www.nlm.nih.gov/research/umls/rxnorm",
                          "code": "1049502",
                          "display": "12 HR Oxycodone Hydrochloride 10 MG Extended Release Oral Tablet"
                      }
                  ]
              },
              "subject": {
                  "reference": "Patient/example-rec-10-patient-view-no-screenings"
              },
              "encounter": {
                  "reference": "Encounter/example-rec-10-patient-view-no-screenings-prefetch"
              },
              "authoredOn": "2023-01-31",
              "dosageInstruction": [
                  {
                      "timing": {
                          "repeat": {
                              "frequency": 3,
                              "period": 1.0,
                              "periodUnit": "d"
                          }
                      },
                      "asNeededBoolean": false,
                      "doseAndRate": [
                          {
                              "doseQuantity": {
                                  "value": 1.0,
                                  "unit": "tablet",
                                  "system": "http://unitsofmeasure.org",
                                  "code": "{tablet}"
                              }
                          }
                      ]
                  }
              ],
              "dispenseRequest": {
                  "validityPeriod": {
                      "start": "2023-01-31T00:00:00-07:00",
                      "end": "2023-05-01T00:00:00-06:00"
                  },
                  "numberOfRepeatsAllowed": 3,
                  "expectedSupplyDuration": {
                      "value": 30.0,
                      "unit": "days",
                      "system": "http://unitsofmeasure.org",
                      "code": "d"
                  }
              }
          },
          "request": {
              "method": "PUT",
              "url": "MedicationRequest/example-rec-10-patient-view-no-screenings-prefetch"
          }
      }
  ]
}