{
  "hookInstance": "a172a2ce-38e7-4a21-a411-522cf481d5d1",
  "fhirServer": "https://cloud.alphora.com/sandbox/r4/cds/fhir",
  "hook": "patient-view",
  "context": {
    "userId": "Practitioner/example",
    "patientId": "Patient/example-rec-10-no-screenings",
    "encounterId": "Encounter/example-rec-10-no-screenings-context"
  },
  "prefetch": {
    "item1": {
      "response": {
        "status": "200 OK"
      },
      "resource": {
        "resourceType": "Patient",
        "extension": [
          {
            "url": "http://fhir.org/guides/cdc/opioid-cds/StructureDefinition/dataDateRoller",
            "extension": [
              {
                "url": "dateLastUpdated",
                "valueDateTime": "2022-04-28"
              },
              {
                "url": "frequency",
                "valueDuration": {
                  "value": 30.0,
                  "unit": "days",
                  "system": "http://unitsofmeasure.org",
                  "code": "d"
                }
              }
            ]
          }
        ],
        "id": "example-rec-10-no-screenings",
        "gender": "female",
        "birthDate": "1982-01-07"
      }
    },
    "item2": {
      "response": {
        "status": "200 OK"
      },
      "resource": {
        "resourceType": "Bundle",
        "type": "searchset",
        "entry": [
          {
            "resource": {
              "resourceType": "MedicationRequest",
              "extension": [
                {
                  "url": "http://fhir.org/guides/cdc/opioid-cds/StructureDefinition/dataDateRoller",
                  "extension": [
                    {
                      "url": "dateLastUpdated",
                      "valueDateTime": "2022-04-28"
                    },
                    {
                      "url": "frequency",
                      "valueDuration": {
                        "value": 30.0,
                        "unit": "days",
                        "system": "http://unitsofmeasure.org",
                        "code": "d"
                      }
                    }
                  ]
                }
              ],
              "id": "example-rec-10-no-screenings-context",
              "status": "active",
              "intent": "order",
              "category": [
                {
                  "coding": [
                    {
                      "system": "http://terminology.hl7.org/CodeSystem/medicationrequest-category",
                      "code": "community"
                    }
                  ]
                }
              ],
              "medicationReference": {
                "reference": "Medication/12bd1f88-426f-4567-85fe-db9eae37f56b",
                "display": "72 HR Fentanyl 0.075 MG/HR Transdermal System"
              },
              "subject": {
                "reference": "Patient/example-rec-10-no-screenings"
              },
              "encounter": {
                "reference": "Encounter/example-rec-10-no-screenings-context"
              },
              "authoredOn": "2022-04-28",
              "dosageInstruction": [
                {
                  "timing": {
                    "repeat": {
                      "frequency": 1,
                      "period": 12.0,
                      "periodUnit": "d"
                    }
                  },
                  "asNeededBoolean": false,
                  "doseAndRate": [
                    {
                      "doseQuantity": {
                        "value": 1.0,
                        "unit": "patch",
                        "system": "http://unitsofmeasure.org",
                        "code": "{patch}"
                      }
                    }
                  ]
                }
              ],
              "dispenseRequest": {
                "validityPeriod": {
                  "start": "2022-04-28",
                  "end": "2022-07-28"
                },
                "numberOfRepeatsAllowed": 3,
                "expectedSupplyDuration": {
                  "value": 30.0,
                  "unit": "days",
                  "system": "http://unitsofmeasure.org",
                  "code": "d"
                }
              }
            }
          },
          {
            "resource": {
              "resourceType": "MedicationRequest",
              "extension": [
                {
                  "url": "http://fhir.org/guides/cdc/opioid-cds/StructureDefinition/dataDateRoller",
                  "extension": [
                    {
                      "url": "dateLastUpdated",
                      "valueDateTime": "2022-04-28"
                    },
                    {
                      "url": "frequency",
                      "valueDuration": {
                        "value": 30.0,
                        "unit": "days",
                        "system": "http://unitsofmeasure.org",
                        "code": "d"
                      }
                    }
                  ]
                }
              ],
              "id": "example-rec-10-no-screenings-prefetch",
              "status": "active",
              "intent": "order",
              "category": [
                {
                  "coding": [
                    {
                      "system": "http://terminology.hl7.org/CodeSystem/medicationrequest-category",
                      "code": "community"
                    }
                  ]
                }
              ],
              "medicationReference": {
                "reference": "Medication/371016cf-18eb-4311-bbc9-0ef2b923a8c9",
                "display": "12 HR Oxycodone Hydrochloride 10 MG Extended Release Oral Tablet"
              },
              "subject": {
                "reference": "Patient/example-rec-10-no-screenings"
              },
              "encounter": {
                "reference": "Encounter/example-rec-10-no-screenings-prefetch"
              },
              "authoredOn": "2022-01-28",
              "dosageInstruction": [
                {
                  "timing": {
                    "repeat": {
                      "frequency": 3,
                      "period": 1.0,
                      "periodUnit": "d"
                    }
                  },
                  "asNeededBoolean": false,
                  "doseAndRate": [
                    {
                      "doseQuantity": {
                        "value": 1.0,
                        "unit": "tablet",
                        "system": "http://unitsofmeasure.org",
                        "code": "{tablet}"
                      }
                    }
                  ]
                }
              ],
              "dispenseRequest": {
                "validityPeriod": {
                  "start": "2022-01-28",
                  "end": "2022-04-28"
                },
                "numberOfRepeatsAllowed": 3,
                "expectedSupplyDuration": {
                  "value": 30.0,
                  "unit": "days",
                  "system": "http://unitsofmeasure.org",
                  "code": "d"
                }
              }
            }
          }
        ]
      }
    },
    "item3": null,
    "item4": null
  }
}
