{
  "hookInstance": "a172a2ce-38e7-4a21-a411-522cf481d5d1",
  "fhirServer": "http://localhost:8080/fhir",
  "hook": "patient-view",
  "context": {
    "userId": "Practitioner/example",
    "patientId": "Patient/example-rec-10-patient-view-POS-Cocaine-drugs",
    "encounterId": "Encounter/example-rec-10-patient-view-POS-Cocaine-drugs-context"
  },
  "prefetch": {
    "item1": {
      "response": {
        "status": "200 OK"
      },
      "resource": {
        "resourceType": "Patient",
        "id": "example-rec-10-patient-view-no-screenings",
        "gender": "female",
        "birthDate": "1982-01-07"
      }
    },
    "item2": {
      "response": {
        "status": "200 OK"
      },
      "resource": {
        "resourceType": "Bundle",
        "type": "searchset",
        "entry": [
          {
            "resource": {
              "resourceType": "MedicationRequest",
              "id": "example-rec-10-patient-view-no-screenings-context",
              "status": "active",
              "intent": "order",
              "category": [
                {
                  "coding": [
                    {
                      "system": "http://terminology.hl7.org/CodeSystem/medicationrequest-category",
                      "code": "community"
                    }
                  ]
                }
              ],
              "medicationCodeableConcept": {
                "coding": [
                  {
                    "system": "http://www.nlm.nih.gov/research/umls/rxnorm",
                    "code": "197696",
                    "display": "72 HR Fentanyl 0.075 MG/HR Transdermal System"
                  }
                ]
              },
              "subject": {
                "reference": "Patient/example-rec-10-patient-view-no-screenings"
              },
              "encounter": {
                "reference": "Encounter/example-rec-10-patient-view-no-screenings-context"
              },
              "authoredOn": {
                "extension": [
                  {
                    "url": "http://hl7.org/fhir/StructureDefinition/cqf-expression",
                    "valueExpression": {
                      "language": "text/cql",
                      "expression": "2022-04-25"
                    }
                  }
                ]
              },
              "dosageInstruction": [
                {
                  "timing": {
                    "repeat": {
                      "frequency": 1,
                      "period": 12.0,
                      "periodUnit": "d"
                    }
                  },
                  "asNeededBoolean": false,
                  "doseAndRate": [
                    {
                      "doseQuantity": {
                        "value": 1.0,
                        "unit": "patch",
                        "system" : "http://unitsofmeasure.org",
                        "code" : "{patch}"
                      }
                    }
                  ]
                }
              ],
              "dispenseRequest": {
                "validityPeriod": {
                  "start": "2022-04-25",
                  "end": "2022-07-25"
                },
                "numberOfRepeatsAllowed": 3,
                "expectedSupplyDuration": {
                  "value": 30.0,
                  "unit": "days",
                  "system": "http://unitsofmeasure.org",
                  "code": "d"
                }
              }
            }
          },
          {
            "resource": {
              "resourceType": "MedicationRequest",
              "id": "example-rec-10-patient-view-no-screenings-prefetch",
              "status": "active",
              "intent": "order",
              "category": [
                {
                  "coding": [
                    {
                      "system": "http://terminology.hl7.org/CodeSystem/medicationrequest-category",
                      "code": "community"
                    }
                  ]
                }
              ],
              "medicationCodeableConcept": {
                "coding": [
                  {
                    "system": "http://www.nlm.nih.gov/research/umls/rxnorm",
                    "code": "1049502",
                    "display": "12 HR Oxycodone Hydrochloride 10 MG Extended Release Oral Tablet"
                  }
                ]
              },
              "subject": {
                "reference": "Patient/example-rec-10-patient-view-no-screenings"
              },
              "encounter": {
                "reference": "Encounter/example-rec-10-patient-view-no-screenings-prefetch"
              },
              "authoredOn": {
                "extension": [
                  {
                    "url": "http://hl7.org/fhir/StructureDefinition/cqf-expression",
                    "valueExpression": {
                      "language": "text/cql",
                      "expression": "2022-01-25"
                    }
                  }
                ]
              },
              "dosageInstruction": [
                {
                  "timing": {
                    "repeat": {
                      "frequency": 3,
                      "period": 1.0,
                      "periodUnit": "d"
                    }
                  },
                  "asNeededBoolean": false,
                  "doseAndRate": [
                    {
                      "doseQuantity": {
                        "value": 1.0,
                        "unit": "tablet",
                        "system" : "http://unitsofmeasure.org",
                        "code" : "{tablet}"
                      }
                    }
                  ]
                }
              ],
              "dispenseRequest": {
                "validityPeriod": {
                  "start": "2022-01-25",
                  "end": "2022-04-25"
                },
                "numberOfRepeatsAllowed": 3,
                "expectedSupplyDuration": {
                  "value": 30.0,
                  "unit": "days",
                  "system": "http://unitsofmeasure.org",
                  "code": "d"
                }
              }
            }
          }
        ]
      }
    },
    "item3": null,
    "item4": null
  }
}
