{
  "hookInstance": "31c74cfc-747c-4afc-82e4-bdd3b7a0a58c",
  "fhirServer": "http://localhost:8080/fhir",
  "hook": "patient-view",
  "context": {
    "userId": "Practitioner/example",
    "patientId": "Patient/example-rec-10-illicit-drugs",
    "encounterId": "Encounter/example-rec-10-illicit-drugs-context"
  },
  "prefetch": {
    "item1": {
      "response": {
        "status": "200 OK"
      },
      "resource": {
        "resourceType": "Patient",
        "id": "example-rec-10-illicit-drugs",
        "extension": [
          {
            "url": "http://fhir.org/guides/cdc/opioid-cds/StructureDefinition/dataDateRoller",
            "extension": [
              {
                "url": "dateLastUpdated",
                "valueDateTime": "2023-06-14"
              },
              {
                "url": "frequency",
                "valueDuration": {
                  "value": 30.0,
                  "unit": "days",
                  "system": "http://unitsofmeasure.org",
                  "code": "d"
                }
              }
            ]
          }
        ],
        "name": [
          {
            "family": "Smith",
            "given": [
              "John",
              "A."
            ]
          }
        ],
        "gender": "female",
        "birthDate": "1983-02-23"
      }
    },
    "item2": {
      "response": {
        "status": "200 OK"
      },
      "resource": {
        "resourceType": "Bundle",
        "entry": [
          {
            "resource": {
              "resourceType": "MedicationRequest",
              "id": "example-rec-10-illicit-drugs-prefetch",
              "extension": [
                {
                  "url": "http://fhir.org/guides/cdc/opioid-cds/StructureDefinition/dataDateRoller",
                  "extension": [
                    {
                      "url": "dateLastUpdated",
                      "valueDateTime": "2023-06-14"
                    },
                    {
                      "url": "frequency",
                      "valueDuration": {
                        "value": 30.0,
                        "unit": "days",
                        "system": "http://unitsofmeasure.org",
                        "code": "d"
                      }
                    }
                  ]
                }
              ],
              "status": "active",
              "intent": "order",
              "category": [
                {
                  "coding": [
                    {
                      "system": "http://terminology.hl7.org/CodeSystem/medicationrequest-category",
                      "code": "community"
                    }
                  ]
                }
              ],
              "medicationCodeableConcept": {
                "coding": [
                  {
                    "system": "http://www.nlm.nih.gov/research/umls/rxnorm",
                    "code": "1049502",
                    "display": "12 HR Oxycodone Hydrochloride 10 MG Extended Release Oral Tablet"
                  }
                ]
              },
              "subject": {
                "reference": "Patient/example-rec-10-illicit-drugs"
              },
              "encounter": {
                "reference": "Encounter/example-rec-10-illicit-drugs-prefetch"
              },
              "authoredOn": "2023-03-16",
              "dosageInstruction": [
                {
                  "timing": {
                    "repeat": {
                      "frequency": 3,
                      "period": 1.0,
                      "periodUnit": "d"
                    }
                  },
                  "asNeededBoolean": false,
                  "doseAndRate": [
                    {
                      "doseQuantity": {
                        "value": 1.0,
                        "unit": "tablet",
                        "system": "http://unitsofmeasure.org",
                        "code": "{tablet}"
                      }
                    }
                  ]
                }
              ],
              "dispenseRequest": {
                "validityPeriod": {
                  "start": "2023-03-16T00:00:00-06:00",
                  "end": "2023-06-14T00:00:00-06:00"
                },
                "numberOfRepeatsAllowed": 3,
                "expectedSupplyDuration": {
                  "value": 30.0,
                  "unit": "days",
                  "system": "http://unitsofmeasure.org",
                  "code": "d"
                }
              }
            }
          },
          {
            "resource": {
              "resourceType": "MedicationRequest",
              "id": "example-rec-10-illicit-drugs-context",
              "extension": [
                {
                  "url": "http://fhir.org/guides/cdc/opioid-cds/StructureDefinition/dataDateRoller",
                  "extension": [
                    {
                      "url": "dateLastUpdated",
                      "valueDateTime": "2023-06-14"
                    },
                    {
                      "url": "frequency",
                      "valueDuration": {
                        "value": 30.0,
                        "unit": "days",
                        "system": "http://unitsofmeasure.org",
                        "code": "d"
                      }
                    }
                  ]
                }
              ],
              "status": "active",
              "intent": "order",
              "category": [
                {
                  "coding": [
                    {
                      "system": "http://terminology.hl7.org/CodeSystem/medicationrequest-category",
                      "code": "community"
                    }
                  ]
                }
              ],
              "medicationCodeableConcept": {
                "coding": [
                  {
                    "system": "http://www.nlm.nih.gov/research/umls/rxnorm",
                    "code": "197696",
                    "display": "72 HR Fentanyl 0.075 MG/HR Transdermal System"
                  }
                ]
              },
              "subject": {
                "reference": "Patient/example-rec-10-illicit-drugs"
              },
              "encounter": {
                "reference": "Encounter/example-rec-10-illicit-drugs-context"
              },
              "authoredOn": "2023-06-14",
              "dosageInstruction": [
                {
                  "timing": {
                    "repeat": {
                      "frequency": 1,
                      "period": 12.0,
                      "periodUnit": "d"
                    }
                  },
                  "asNeededBoolean": false,
                  "doseAndRate": [
                    {
                      "doseQuantity": {
                        "value": 1.0,
                        "unit": "patch",
                        "system": "http://unitsofmeasure.org",
                        "code": "{patch}"
                      }
                    }
                  ]
                }
              ],
              "dispenseRequest": {
                "validityPeriod": {
                  "start": "2023-06-14T00:00:00-06:00",
                  "end": "2023-09-13T00:00:00-06:00"
                },
                "numberOfRepeatsAllowed": 3,
                "expectedSupplyDuration": {
                  "value": 30.0,
                  "unit": "days",
                  "system": "http://unitsofmeasure.org",
                  "code": "d"
                }
              }
            }
          }
        ]
      }
    },
    "item3": {
      "response": {
        "status": "200 OK"
      },
      "resource": {
        "resourceType": "Observation",
        "id": "example-rec-10-illicit-drugs-prefetch",
        "extension": [
          {
            "url": "http://fhir.org/guides/cdc/opioid-cds/StructureDefinition/dataDateRoller",
            "extension": [
              {
                "url": "dateLastUpdated",
                "valueDateTime": "2023-06-14"
              },
              {
                "url": "frequency",
                "valueDuration": {
                  "value": 30.0,
                  "unit": "days",
                  "system": "http://unitsofmeasure.org",
                  "code": "d"
                }
              }
            ]
          }
        ],
        "status": "final",
        "code": {
          "coding": [
            {
              "system": "http://loinc.org",
              "code": "3426-4",
              "display": "Tetrahydrocannabinol [Presence] in Urine"
            }
          ]
        },
        "subject": {
          "reference": "Patient/example-rec-10-illicit-drugs"
        },
        "effectiveDateTime": "2023-05-18",
        "interpretation": [
          {
            "coding": [
              {
                "system": "http://hl7.org/fhir/v2/0078",
                "code": "POS"
              }
            ]
          }
        ]
      }
    },
    "item4": null
  }
}