{
  "hookInstance": "3a2ff17f-4d50-43a0-a409-20d7686b90ea",
  "fhirServer": "https://cloud.alphora.com/sandbox/r4/cds/fhir",
  "hook": "patient-view",
  "context": {
    "userId": "Practitioner/example",
    "patientId": "Patient/example-rec-04-new-patient",
    "encounterId": "Encounter/example-rec-04-new-patient-prefetch"
  },
  "prefetch": {
    "item1": {
      "response": {
        "status": "200 OK"
      },
      "resource": {
        "resourceType": "Patient",
        "extension": [
          {
            "url": "http://fhir.org/guides/cdc/opioid-cds/StructureDefinition/dataDateRoller",
            "extension": [
              {
                "url": "dateLastUpdated",
                "valueDateTime": "2022-04-08"
              },
              {
                "url": "frequency",
                "valueDuration": {
                  "value": 30.0,
                  "unit": "days",
                  "system": "http://unitsofmeasure.org",
                  "code": "d"
                }
              }
            ]
          }
        ],
        "id": "example-rec-04-new-patient",
        "gender": "male",
        "birthDate": "1982-01-07"
      }
    },
    "item2": {
      "response": {
        "status": "200 OK"
      },
      "resource": {
        "resourceType": "MedicationRequest",
        "extension": [
          {
            "url": "http://fhir.org/guides/cdc/opioid-cds/StructureDefinition/dataDateRoller",
            "extension": [
              {
                "url": "dateLastUpdated",
                "valueDateTime": "2022-04-08"
              },
              {
                "url": "frequency",
                "valueDuration": {
                  "value": 30.0,
                  "unit": "days",
                  "system": "http://unitsofmeasure.org",
                  "code": "d"
                }
              }
            ]
          }
        ],
        "id": "example-rec-04-new-patient-prefetch",
        "status": "active",
        "intent": "order",
        "category": [{
          "coding": [
            {
              "system": "http://terminology.hl7.org/CodeSystem/medicationrequest-category",
              "code": "community"
            }
          ]
        }],
        "medicationCodeableConcept": {
          "coding": [
            {
              "system": "http://www.nlm.nih.gov/research/umls/rxnorm",
              "code": "1049502",
              "display": "12 HR Oxycodone Hydrochloride 10 MG Extended Release Oral Tablet"
            }
          ]
        },
        "subject": {
          "reference": "Patient/example-rec-04-new-patient"
        },
        "encounter": {
          "reference": "Encounter/example-rec-04-new-patient-prefetch"
        },
        "authoredOn": "2022-04-08",
        "dosageInstruction": [
          {
            "timing": {
              "repeat": {
                "frequency": 1,
                "period": 3.0,
                "periodUnit": "d"
              }
            },
            "asNeededBoolean": false,
            "doseAndRate": [{
              "doseQuantity": {
                "value": 1.0,
                "unit": "patch",
                "system" : "http://unitsofmeasure.org",
                "code" : "{patch}"
              }
            }]
          }
        ],
        "dispenseRequest": {
          "_validityPeriod": {
            "start": "2022-04-08",
            "end": "2022-07-08"
          },
          "numberOfRepeatsAllowed": 3,
          "expectedSupplyDuration": {
            "value": 30,
            "unit": "days",
            "system": "http://unitsofmeasure.org",
            "code": "d"
          }
        }
      }
    },
    "item3": null,
    "item4": null,
    "item5": null
  }
}
