{
  "hookInstance": "9d02e4d7-2d5b-492f-8f77-d76edb47168b",
  "fhirServer": "http://localhost:8080/fhir",
  "hook": "patient-view",
  "context": {
    "userId": "Practitioner/example",
    "patientId": "Patient/example-rec-04-long-acting-opioid",
    "encounterId": "Encounter/example-rec-04-long-acting-opioid-prefetch"
  },
  "prefetch": {
    "item1": {
      "response": {
        "status": "200 OK"
      },
      "resource": {
        "resourceType": "Patient",
        "id": "example-rec-04-long-acting-opioid",
        "gender": "male",
        "birthDate": "1982-01-07"
      }
    },
    "item2": {
      "response": {
        "status": "200 OK"
      },
      "resource": {
        "resourceType": "MedicationRequest",
        "id": "example-rec-04-long-acting-opioid-prefetch",
        "status": "active",
        "intent": "order",
        "category": [{
          "coding": [
            {
              "system": "http://terminology.hl7.org/CodeSystem/medicationrequest-category",
              "code": "community"
            }
          ]
        }],
        "medicationCodeableConcept": {
          "coding": [
            {
              "system": "http://www.nlm.nih.gov/research/umls/rxnorm",
              "code": "1049502",
              "display": "12 HR Oxycodone Hydrochloride 10 MG Extended Release Oral Tablet"
            }
          ]
        },
        "subject": {
          "reference": "Patient/example-rec-04-long-acting-opioid"
        },
        "context": {
          "reference": "Encounter/example-rec-04-long-acting-opioid-prefetch"
        },
        "authoredOn": "2021-12-08",
        "dosageInstruction": [
          {
            "timing": {
              "repeat": {
                "frequency": 1,
                "period": 3.0,
                "periodUnit": "d"
              }
            },
            "asNeededBoolean": false,
            "doseAndRate": [{
              "doseQuantity": {
                "value": 1.0,
                "unit": "patch",
                "system" : "http://unitsofmeasure.org",
                "code" : "{patch}"
              }
            }]
          }
        ],
        "dispenseRequest": {
          "_validityPeriod": {
            "start": "2021-12-08",
            "end": "2022-07-08"
          },
          "numberOfRepeatsAllowed": 3,
          "expectedSupplyDuration": {
            "value": 30,
            "unit": "days",
            "system": "http://unitsofmeasure.org",
            "code": "d"
          }
        }
      }
    },
    "item3": null,
    "item4": null,
    "item5": {
      "response": {
        "status": "200 OK"
      },
      "resource": {
        "resourceType": "Encounter",
        "id": "example-rec-04-long-acting-opioid-prefetch",
        "status": "finished",
        "subject": {
          "reference": "Patient/example-rec-04-long-acting-opioid"
        },
        "period": {
          "start": "2021-12-08",
          "end": "2021-12-08"
        }
      }
    }
  }
}
