{
  "hookInstance": "3078316d-e23f-4094-aec6-a6094ad29204",
  "fhirServer": "http://cqf-ruler.localhost:8080/fhir",
  "hook": "order-select",
  "context": {
    "userId": "Practitioner/example",
    "patientId": "Patient/example-rec-11-opioid-trigger-with-benzo",
    "encounterId": "Encounter/example-rec-11-opioid-trigger-with-benzo-context",
    "selections": [ "MedicationRequest/example-rec-11-opioid-trigger-with-benzo-context" ],
    "draftOrders":
      {
        "resourceType": "MedicationRequest",
        "id": "example-rec-11-opioid-trigger-with-benzo-context",
        "status": "active",
        "intent": "order",
        "category": [
          {
            "coding": [
              {
                "system": "http://terminology.hl7.org/CodeSystem/medicationrequest-category",
                "code": "community"
              }
            ]
          }
        ],
        "medicationCodeableConcept": {
          "coding": [
            {
              "system": "http://www.nlm.nih.gov/research/umls/rxnorm",
              "code": "1049502",
              "display": "12 HR Oxycodone Hydrochloride 10 MG Extended Release Oral Tablet"
            }
          ]
        },
        "subject": {
          "reference": "example-rec-11-opioid-trigger-with-benzo-context"
        },
        "encounter": {
          "reference": "Encounter/example-rec-11-opioid-trigger-with-benzo-context"
        },
        "authoredOn": "2022-04-28",
        "dosageInstruction": [
          {
            "timing": {
              "repeat": {
                "frequency": 1,
                "period": 1.0,
                "periodUnit": "d"
              }
            },
            "asNeededBoolean": false,
            "doseAndRate": [
              {
                "doseQuantity": {
                  "value": 1.0,
                  "unit": "tablet",
                  "system" : "http://unitsofmeasure.org",
                  "code" : "{tablet}"
                }
              }
            ]
          }
        ],
        "dispenseRequest": {
          "validityPeriod": {
            "start": "2022-04-28",
            "end": "2022-07-28"
          },
          "numberOfRepeatsAllowed": 3,
          "expectedSupplyDuration": {
            "value": 30.0,
            "unit": "days",
            "system": "http://unitsofmeasure.org",
            "code": "d"
          }
        }
      }
  },
  "prefetch": {
    "item1": {
      "response": {
        "status": "200 OK"
      },
      "resource": {
        "resourceType": "Patient",
        "id": "example-rec-11-opioid-trigger-with-benzo",
        "gender": "female",
        "birthDate": "1982-01-07"
      }
    },
    "item2": null,
    "item3": null,
    "item4": {
      "response": {
        "status": "200 OK"
      },
      "resource": {
        "resourceType": "MedicationRequest",
        "id": "example-rec-11-opioid-trigger-with-benzo-prefetch",
        "status": "active",
        "intent": "order",
        "category": [
          {
            "coding": [
              {
                "system": "http://terminology.hl7.org/CodeSystem/medicationrequest-category",
                "code": "community"
              }
            ]
          }
        ],
        "medicationCodeableConcept": {
          "coding": [
            {
              "system": "http://www.nlm.nih.gov/research/umls/rxnorm",
              "code": "1298088",
              "display": "Flurazepam Hydrochloride 15 MG Oral Capsule"
            }
          ]
        },
        "subject": {
          "reference": "Patient/example-rec-11-opioid-trigger-with-benzo"
        },
        "encounter": {
          "reference": "Encounter/example-rec-11-opioid-trigger-with-benzo-prefetch"
        },
        "authoredOn": "2022-04-01",
        "dosageInstruction": [
          {
            "timing": {
              "repeat": {
                "frequency": 1,
                "period": 1.0,
                "periodUnit": "d"
              }
            },
            "asNeededBoolean": false,
            "doseAndRate": [
              {
                "doseQuantity": {
                  "value": 1.0,
                  "unit": "capsule",
                  "system" : "http://unitsofmeasure.org",
                  "code" : "{capsule}"
                }
              }
            ]
          }
        ],
        "dispenseRequest": {
          "validityPeriod": {
            "start": "2022-04-01",
            "end": "2022-07-28"
          },
          "numberOfRepeatsAllowed": 3,
          "expectedSupplyDuration": {
            "value": 30.0,
            "unit": "days",
            "system": "http://unitsofmeasure.org",
            "code": "d"
          }
        }
      }
    },
    "item5": null,
    "item6": null,
    "item7": {
      "response": {
        "status": "200 OK"
      },
      "resource": {
        "resourceType": "Encounter",
        "id": "example-rec-11-opioid-trigger-with-benzo-prefetch",
        "status": "finished",
        "subject": {
          "reference": "Patient/example-rec-11-opioid-trigger-with-benzo"
        },
        "period": {
          "start" :"2022-01-28",
          "end": "2022-01-28"
        }
      }
    },
    "item8": null,
    "item9": null
  }
}
