{
  "hookInstance": "229a709f-ee1c-4954-b7fd-72e6c46706dd",
  "fhirServer": "http://localhost:8080/fhir",
  "hook": "order-select",
  "context": {
    "userId": "Practitioner/example",
    "patientId": "Patient/example-rec-08-mme-greater-than-fifty",
    "encounterId": "Encounter/example-rec-08-mme-greater-than-fifty-context",
    "selections": [
      "MedicationRequest/example-rec-08-mme-greater-than-fifty-context"
    ],
    "draftOrders": {
      "resourceType": "Bundle",
      "type": "collection",
      "entry": [
        {
          "resource": {
            "resourceType": "MedicationRequest",
            "id": "example-rec-08-mme-greater-than-fifty-context",
            "extension": [
              {
                "url": "http://fhir.org/guides/cdc/opioid-cds/StructureDefinition/dataDateRoller",
                "extension": [
                  {
                    "url": "dateLastUpdated",
                    "valueDateTime": "2023-05-01"
                  },
                  {
                    "url": "frequency",
                    "valueDuration": {
                      "value": 30.0,
                      "unit": "days",
                      "system": "http://unitsofmeasure.org",
                      "code": "d"
                    }
                  }
                ]
              }
            ],
            "status": "active",
            "intent": "order",
            "category": [
              {
                "coding": [
                  {
                    "system": "http://terminology.hl7.org/CodeSystem/medicationrequest-category",
                    "code": "community"
                  }
                ]
              }
            ],
            "medicationCodeableConcept": {
              "coding": [
                {
                  "system": "http://www.nlm.nih.gov/research/umls/rxnorm",
                  "code": "197696",
                  "display": "72 HR Fentanyl 0.075 MG/HR Transdermal System"
                }
              ]
            },
            "subject": {
              "reference": "Patient/example-rec-08-mme-greater-than-fifty"
            },
            "encounter": {
              "reference": "Encounter/example-rec-08-mme-greater-than-fifty-context"
            },
            "authoredOn": "2023-05-01",
            "dosageInstruction": [
              {
                "timing": {
                  "repeat": {
                    "frequency": 1,
                    "period": 3.0,
                    "periodUnit": "d"
                  }
                },
                "doseAndRate": [
                  {
                    "type": {
                      "coding": [
                        {
                          "system": "http://epic.com/CodeSystem/dose-rate-type",
                          "code": "calculated",
                          "display": "calculated"
                        }
                      ],
                      "text": "calculated"
                    },
                    "doseQuantity": {
                      "value": 1.0,
                      "unit": "patch",
                      "system": "http://unitsofmeasure.org",
                      "code": "{patch}"
                    }
                  },
                  {
                    "type": {
                      "coding": [
                        {
                          "system": "http://epic.com/CodeSystem/dose-rate-type",
                          "code": "admin-amount",
                          "display": "admin-amount"
                        }
                      ],
                      "text": "admin-amount"
                    },
                    "doseQuantity": {
                      "value": 1.0,
                      "unit": "patch",
                      "system": "http://unitsofmeasure.org",
                      "code": "{patch}"
                    }
                  },
                  {
                    "type": {
                      "coding": [
                        {
                          "system": "http://epic.com/CodeSystem/dose-rate-type",
                          "code": "ordered",
                          "display": "ordered"
                        }
                      ],
                      "text": "ordered"
                    },
                    "doseQuantity": {
                      "value": 1.0,
                      "unit": "patch",
                      "system": "http://unitsofmeasure.org",
                      "code": "{patch}"
                    }
                  }
                ]
              }
            ],
            "dispenseRequest": {
              "validityPeriod": {
                "start": "2023-05-01T00:00:00-06:00",
                "end": "2023-07-31T00:00:00-06:00"
              },
              "numberOfRepeatsAllowed": 3,
              "quantity": {
                "value": 30,
                "unit": "patch",
                "system": "http://terminology.hl7.org/CodeSystem/v3-orderableDrugForm",
                "code": "patch"
              },
              "expectedSupplyDuration": {
                "value": 30.0,
                "unit": "days",
                "system": "http://unitsofmeasure.org",
                "code": "d"
              }
            }
          }
        }
      ]
    }
  },
  "prefetch": {
    "item1": {
        "resourceType": "Patient",
        "id": "example-rec-08-mme-greater-than-fifty",
        "extension": [
          {
            "url": "http://fhir.org/guides/cdc/opioid-cds/StructureDefinition/dataDateRoller",
            "extension": [
              {
                "url": "dateLastUpdated",
                "valueDateTime": "2023-05-01"
              },
              {
                "url": "frequency",
                "valueDuration": {
                  "value": 30.0,
                  "unit": "days",
                  "system": "http://unitsofmeasure.org",
                  "code": "d"
                }
              }
            ]
          }
        ],
        "gender": "male",
        "birthDate": "1983-01-10"
      }
    },
    "item2": null,
    "item3": null,
    "item4": null,
    "item5": null,
    "item6": null,
    "item7": null,
    "item8": null,
    "item9": null,
    "item10": null,
    "item11": null,
    "item12": null,
    "item13": null,
    "item14": null,
    "item15": null,
    "item16": null
  }
}
