{
  "hookInstance": "31c74cfc-747c-4afc-82e4-bdd3b7a0a58c",
  "fhirServer": "http://localhost:8080/fhir",
  "hook": "order-sign",
  "context": {
    "userId": "Practitioner/example",
    "patientId": "Patient/example-rec-10-fentanyl",
    "encounterId": "Encounter/example-rec-10-fentanyl-context",
    "draftOrders": {
      "resourceType": "Bundle",
      "type": "collection",
      "entry": [
        {
          "resource": {
            "resourceType": "MedicationRequest",
            "id": "example-rec-10-fentanyl-prefetch",
            "extension": [
              {
                "url": "http://fhir.org/guides/cdc/opioid-cds/StructureDefinition/dataDateRoller",
                "extension": [
                  {
                    "url": "dateLastUpdated",
                    "valueDateTime": "2023-06-14"
                  },
                  {
                    "url": "frequency",
                    "valueDuration": {
                      "value": 30.0,
                      "unit": "days",
                      "system": "http://unitsofmeasure.org",
                      "code": "d"
                    }
                  }
                ]
              }
            ],
            "status": "active",
            "intent": "order",
            "category": [
              {
                "coding": [
                  {
                    "system": "http://terminology.hl7.org/CodeSystem/medicationrequest-category",
                    "code": "community"
                  }
                ]
              }
            ],
            "medicationCodeableConcept": {
              "coding": [
                {
                  "system": "http://www.nlm.nih.gov/research/umls/rxnorm",
                  "code": "1049502",
                  "display": "12 HR Oxycodone Hydrochloride 10 MG Extended Release Oral Tablet"
                }
              ]
            },
            "subject": {
              "reference": "Patient/example-rec-10-fentanyl"
            },
            "encounter": {
              "reference": "Encounter/example-rec-10-fentanyl-prefetch"
            },
            "authoredOn": "2023-03-16",
            "dosageInstruction": [
              {
                "timing": {
                  "repeat": {
                    "frequency": 3,
                    "period": 1.0,
                    "periodUnit": "d"
                  }
                },
                "asNeededBoolean": false,
                "doseAndRate": [
                  {
                    "doseQuantity": {
                      "value": 1.0,
                      "unit": "tablet",
                      "system": "http://unitsofmeasure.org",
                      "code": "{tablet}"
                    }
                  }
                ]
              }
            ],
            "dispenseRequest": {
              "validityPeriod": {
                "start": "2023-03-16T00:00:00-06:00",
                "end": "2023-06-14T00:00:00-06:00"
              },
              "numberOfRepeatsAllowed": 3,
              "expectedSupplyDuration": {
                "value": 35.0,
                "unit": "days",
                "system": "http://unitsofmeasure.org",
                "code": "d"
              }
            }
          }
        }
      ]
    }
  },
  "prefetch": {
    "item1": {
      "response": {
        "status": "200 OK"
      },
      "resource": {
        "resourceType": "Patient",
        "id": "example-rec-10-fentanyl",
        "extension": [
          {
            "url": "http://fhir.org/guides/cdc/opioid-cds/StructureDefinition/dataDateRoller",
            "extension": [
              {
                "url": "dateLastUpdated",
                "valueDateTime": "2023-06-14"
              },
              {
                "url": "frequency",
                "valueDuration": {
                  "value": 30.0,
                  "unit": "days",
                  "system": "http://unitsofmeasure.org",
                  "code": "d"
                }
              }
            ]
          }
        ],
        "gender": "female",
        "birthDate": "2003-06-14"
      }
    },
    "item2": null,
    "item3": null,
    "item4": null,
    "item5": null,
    "item6": null,
    "item7": {
      "response": {
        "status": "200 OK"
      },
      "resource": {
        "resourceType": "Encounter",
        "id": "example-rec-10-fentanyl-prefetch",
        "extension": [
          {
            "url": "http://fhir.org/guides/cdc/opioid-cds/StructureDefinition/dataDateRoller",
            "extension": [
              {
                "url": "dateLastUpdated",
                "valueDateTime": "2023-06-14"
              },
              {
                "url": "frequency",
                "valueDuration": {
                  "value": 30.0,
                  "unit": "days",
                  "system": "http://unitsofmeasure.org",
                  "code": "d"
                }
              }
            ]
          }
        ],
        "status": "finished",
        "subject": {
          "reference": "Patient/example-rec-10-fentanyl"
        },
        "period": {
          "start": "2023-03-11",
          "end": "2023-03-11"
        }
      }
    },
    "item8": {
      "response": {
        "status": "200 OK"
      },
      "resource": {
        "resourceType": "Bundle",
        "entry": [
          {
            "resource": {
              "resourceType": "Observation",
              "id": "example-rec-10-fentanyl-prefetch-1",
              "extension": [
                {
                  "url": "http://fhir.org/guides/cdc/opioid-cds/StructureDefinition/dataDateRoller",
                  "extension": [
                    {
                      "url": "dateLastUpdated",
                      "valueDateTime": "2023-07-05"
                    },
                    {
                      "url": "frequency",
                      "valueDuration": {
                        "value": 30.0,
                        "unit": "days",
                        "system": "http://unitsofmeasure.org",
                        "code": "d"
                      }
                    }
                  ]
                }
              ],
              "status": "final",
              "category": [
                {
                  "coding": [
                    {
                      "system": "http://terminology.hl7.org/CodeSystem/observation-category",
                      "code": "laboratory"
                    }
                  ]
                }
              ],
              "code": {
                "coding": [
                  {
                    "system": "http://loinc.org",
                    "code": "74810-3",
                    "display": "Acetyl fentanyl [Presence] in Urine by Confirmatory method"
                  }
                ]
              },
              "subject": {
                "reference": "Patient/example-rec-10-fentanyl"
              },
              "effectiveDateTime": "2023-07-05",
              "valueString": "POS",
              "interpretation": [
                {
                  "coding": [
                    {
                      "system": "http://hl7.org/fhir/v2/0078",
                      "code": "POS"
                    }
                  ]
                }
              ]
            }
          }
        ]
      }
    },
    "item9": null,
    "item10": null
  }
}