{
  "hookInstance": "4676f1ae-65c0-4935-9833-35a123e4767a",
  "fhirServer": "http://localhost:8080/fhir",
  "hook": "order-sign",
  "context": {
    "userId": "Practitioner/example",
    "patientId": "Patient/example-rec-05-mme-greater-than-fifty",
    "encounterId": "Encounter/example-rec-05-mme-greater-than-fifty-context",
    "draftOrders": {
      "resourceType": "Bundle",
      "type": "collection",
      "entry": [
        {
          "resource": {
            "resourceType": "MedicationRequest",
            "id": "example-rec-05-mme-greater-than-fifty-context",
            "extension": [
              {
                "url": "http://fhir.org/guides/cdc/opioid-cds/StructureDefinition/dataDateRoller",
                "extension": [
                  {
                    "url": "dateLastUpdated",
                    "valueDateTime": "2023-05-01"
                  },
                  {
                    "url": "frequency",
                    "valueDuration": {
                      "value": 1.0,
                      "unit": "days",
                      "system": "http://unitsofmeasure.org",
                      "code": "d"
                    }
                  }
                ]
              }
            ],
            "status": "active",
            "intent": "order",
            "category": [
              {
                "coding": [
                  {
                    "system": "http://terminology.hl7.org/CodeSystem/medicationrequest-category",
                    "code": "community"
                  }
                ]
              }
            ],
            "medicationCodeableConcept": {
              "coding": [
                {
                  "system": "http://www.nlm.nih.gov/research/umls/rxnorm",
                  "code": "197696",
                  "display": "72 HR Fentanyl 0.075 MG/HR Transdermal System"
                }
              ]
            },
            "subject": {
              "reference": "Patient/example-rec-05-mme-greater-than-fifty"
            },
            "encounter": {
              "reference": "Encounter/example-rec-05-mme-greater-than-fifty-context"
            },
            "authoredOn": "2023-05-01",
            "dosageInstruction": [
              {
                "timing": {
                  "repeat": {
                    "frequency": 1,
                    "period": 1.0,
                    "periodUnit": "d"
                  }
                },
                "asNeededBoolean": false,
                "doseAndRate": [
                  {
                    "doseQuantity": {
                      "value": 1.0,
                      "unit": "patch",
                      "system": "http://unitsofmeasure.org",
                      "code": "{patch}"
                    }
                  }
                ]
              }
            ],
            "dispenseRequest": {
              "validityPeriod": {
                "start": "2023-05-01T00:00:00-06:00",
                "end": "2023-11-01T00:00:00-06:00"
              },
              "numberOfRepeatsAllowed": 3,
              "expectedSupplyDuration": {
                "value": 30,
                "unit": "days",
                "system": "http://unitsofmeasure.org",
                "code": "d"
              }
            }
          }
        }
      ]
    }
  },
  "prefetch": {
    "item1": null,
    "item2": null,
    "item3": {
      "response": {
        "status": "200 OK"
      },
      "resource": {
        "resourceType": "Patient",
        "id": "example-rec-05-mme-greater-than-fifty",
        "extension": [
          {
            "url": "http://fhir.org/guides/cdc/opioid-cds/StructureDefinition/dataDateRoller",
            "extension": [
              {
                "url": "dateLastUpdated",
                "valueDateTime": "2023-05-01"
              },
              {
                "url": "frequency",
                "valueDuration": {
                  "value": 30.0,
                  "unit": "days",
                  "system": "http://unitsofmeasure.org",
                  "code": "d"
                }
              }
            ]
          }
        ],
        "gender": "female",
        "birthDate": "2003-05-01"
      }
    },
    "item4": null,
    "item5": null,
    "item6": null,
    "item7": null,
    "item8": null,
    "item9": null,
    "item10": null,
    "item11": null,
    "item12": null,
    "item13": null
  }
}