{
  "hookInstance": "f4a85598-bc39-4c4f-a944-c876eb0e984e",
  "fhirServer": "http://localhost:8080/fhir",
  "hook": "order-sign",
  "context": {
    "userId": "Practitioner/example",
    "patientId": "Patient/example-rec-07-risk-assessment",
    "encounterId": "Encounter/example-rec-07-risk-assessment-context",
    "draftOrders": {
      "resourceType": "Bundle",
      "type": "collection",
      "entry": [
        {
          "resource": {
            "resourceType": "MedicationRequest",
            "id": "example-rec-07-risk-assessment-context",
            "extension": [
              {
                "url": "http://fhir.org/guides/cdc/opioid-cds/StructureDefinition/dataDateRoller",
                "extension": [
                  {
                    "url": "dateLastUpdated",
                    "valueDateTime": "2022-10-06"
                  },
                  {
                    "url": "frequency",
                    "valueDuration": {
                      "value": 1.0,
                      "unit": "days",
                      "system": "http://unitsofmeasure.org",
                      "code": "d"
                    }
                  }
                ]
              }
            ],
            "status": "active",
            "intent": "order",
            "category": [
              {
                "coding": [
                  {
                    "system": "http://terminology.hl7.org/CodeSystem/medicationrequest-category",
                    "code": "community"
                  }
                ]
              }
            ],
            "medicationCodeableConcept": {
              "coding": [
                {
                  "system": "http://www.nlm.nih.gov/research/umls/rxnorm",
                  "code": "1049502",
                  "display": "12 HR Oxycodone Hydrochloride 10 MG Extended Release Oral Tablet"
                }
              ]
            },
            "subject": {
              "reference": "Patient/example-rec-07-risk-assessment"
            },
            "encounter": {
              "reference": "Encounter/example-rec-07-risk-assessment-context"
            },
            "authoredOn": "2022-10-06",
            "dosageInstruction": [
              {
                "timing": {
                  "repeat": {
                    "frequency": 1,
                    "period": 1.0,
                    "periodUnit": "d"
                  }
                },
                "asNeededBoolean": false
              }
            ],
            "dispenseRequest": {
              "validityPeriod": {
                "start": "2022-10-06T00:00:00-06:00",
                "end": "2023-01-06T00:00:00-07:00"
              },
              "numberOfRepeatsAllowed": 1,
              "expectedSupplyDuration": {
                "value": 30,
                "unit": "days",
                "system": "http://unitsofmeasure.org",
                "code": "d"
              }
            }
          }
        }
      ]
    }
  },
  "prefetch": {
    "item1": null,
    "item2": null,
    "item3": {
      "response": {
        "status": "200 OK"
      },
      "resource": {
        "resourceType": "Patient",
        "id": "example-rec-07-risk-assessment",
        "extension": [
          {
            "url": "http://fhir.org/guides/cdc/opioid-cds/StructureDefinition/dataDateRoller",
            "extension": [
              {
                "url": "dateLastUpdated",
                "valueDateTime": "2022-09-26"
              },
              {
                "url": "frequency",
                "valueDuration": {
                  "value": 30.0,
                  "unit": "days",
                  "system": "http://unitsofmeasure.org",
                  "code": "d"
                }
              }
            ]
          }
        ],
        "gender": "male",
        "birthDate": "2002-09-26"
      }
    },
    "item4": {
      "response": {
        "status": "200 OK"
      },
      "resource": {
        "resourceType": "Procedure",
        "id": "example-rec-07-risk-assessment-prefetch",
        "extension": [
          {
            "url": "http://fhir.org/guides/cdc/opioid-cds/StructureDefinition/dataDateRoller",
            "extension": [
              {
                "url": "dateLastUpdated",
                "valueDateTime": "2022-09-26"
              },
              {
                "url": "frequency",
                "valueDuration": {
                  "value": 30.0,
                  "unit": "days",
                  "system": "http://unitsofmeasure.org",
                  "code": "d"
                }
              }
            ]
          }
        ],
        "status": "completed",
        "code": {
          "coding": [
            {
              "system": "http://snomed.info/sct",
              "code": "268525008",
              "display": "High risk drug monitoring (regime/therapy)"
            }
          ]
        },
        "subject": {
          "reference": "Patient/example-rec-07-risk-assessment"
        },
        "performedPeriod": {
          "start": "2022-08-15",
          "end": "2022-08-15"
        }
      }
    },
    "item5": null,
    "item6": null,
    "item7": null,
    "item8": null,
    "item9": null,
    "item10": null,
    "item11": null,
    "item12": null,
    "item13": null,
    "item14": null
  }
}