{
  "hookInstance": "d4318443-3981-4def-b852-dbb47ec1827b",
  "fhirServer": "http://localhost:8080/fhir",
  "hook": "order-sign",
  "context": {
    "userId": "Practitioner/example",
    "patientId": "Patient/example-rec-07-sixtythree-of-past-ninety-days",
    "encounterId": "Encounter/example-rec-07-sixtythree-of-past-ninety-days-context",
    "draftOrders": {
      "resourceType": "Bundle",
      "type": "collection",
      "entry": [
        {
          "resource": {
            "resourceType": "MedicationRequest",
            "id": "example-rec-07-sixtythree-of-past-ninety-days-context",
            "extension": [
              {
                "url": "http://fhir.org/guides/cdc/opioid-cds/StructureDefinition/dataDateRoller",
                "extension": [
                  {
                    "url": "dateLastUpdated",
                    "valueDateTime": "2023-05-01"
                  },
                  {
                    "url": "frequency",
                    "valueDuration": {
                      "value": 1.0,
                      "unit": "days",
                      "system": "http://unitsofmeasure.org",
                      "code": "d"
                    }
                  }
                ]
              }
            ],
            "status": "active",
            "intent": "order",
            "category": [
              {
                "coding": [
                  {
                    "system": "http://terminology.hl7.org/CodeSystem/medicationrequest-category",
                    "code": "community"
                  }
                ]
              }
            ],
            "medicationCodeableConcept": {
              "coding": [
                {
                  "system": "http://www.nlm.nih.gov/research/umls/rxnorm",
                  "code": "1049502",
                  "display": "12 HR Oxycodone Hydrochloride 10 MG Extended Release Oral Tablet"
                }
              ]
            },
            "subject": {
              "reference": "Patient/example-rec-07-sixtythree-of-past-ninety-days"
            },
            "encounter": {
              "reference": "Encounter/example-rec-07-sixtythree-of-past-ninety-days-context"
            },
            "authoredOn": "2023-05-01",
            "dosageInstruction": [
              {
                "timing": {
                  "repeat": {
                    "frequency": 1,
                    "period": 1.0,
                    "periodUnit": "d"
                  }
                },
                "asNeededBoolean": false
              }
            ],
            "dispenseRequest": {
              "validityPeriod": {
                "start": "2023-05-01T00:00:00-06:00",
                "end": "2023-08-01T00:00:00-06:00"
              },
              "numberOfRepeatsAllowed": 1,
              "expectedSupplyDuration": {
                "value": 30.0,
                "unit": "days",
                "system": "http://unitsofmeasure.org",
                "code": "d"
              }
            }
          }
        }
      ]
    }
  },
  "prefetch": {
    "item1": {
      "response": {
        "status": "200 OK"
      },
      "resource": {
        "resourceType": "MedicationRequest",
        "id": "example-rec-07-sixtythree-of-past-ninety-days-prefetch",
        "extension": [
          {
            "url": "http://fhir.org/guides/cdc/opioid-cds/StructureDefinition/dataDateRoller",
            "extension": [
              {
                "url": "dateLastUpdated",
                "valueDateTime": "2023-05-01"
              },
              {
                "url": "frequency",
                "valueDuration": {
                  "value": 1.0,
                  "unit": "days",
                  "system": "http://unitsofmeasure.org",
                  "code": "d"
                }
              }
            ]
          }
        ],
        "status": "active",
        "intent": "order",
        "category": [
          {
            "coding": [
              {
                "system": "http://terminology.hl7.org/CodeSystem/medicationrequest-category",
                "code": "community"
              }
            ]
          }
        ],
        "medicationCodeableConcept": {
          "coding": [
            {
              "system": "http://www.nlm.nih.gov/research/umls/rxnorm",
              "code": "1049502",
              "display": "12 HR Oxycodone Hydrochloride 10 MG Extended Release Oral Tablet"
            }
          ]
        },
        "subject": {
          "reference": "Patient/example-rec-07-sixtythree-of-past-ninety-days"
        },
        "authoredOn": "2023-01-29",
        "dosageInstruction": [
          {
            "timing": {
              "repeat": {
                "frequency": 1,
                "period": 1.0,
                "periodUnit": "d"
              }
            },
            "asNeededBoolean": false
          }
        ],
        "dispenseRequest": {
          "validityPeriod": {
            "start": "2023-01-29T00:00:00-07:00",
            "end": "2023-05-01T00:00:00-06:00"
          },
          "numberOfRepeatsAllowed": 1,
          "expectedSupplyDuration": {
            "value": 90.0,
            "unit": "days",
            "system": "http://unitsofmeasure.org",
            "code": "d"
          }
        }
      }
    },
    "item2": {
      "response": {
        "status": "200 OK"
      },
      "resource": {
        "resourceType": "Encounter",
        "id": "example-rec-07-sixtythree-of-past-ninety-days-prefetch",
        "extension": [
          {
            "url": "http://fhir.org/guides/cdc/opioid-cds/StructureDefinition/dataDateRoller",
            "extension": [
              {
                "url": "dateLastUpdated",
                "valueDateTime": "2023-05-01"
              },
              {
                "url": "frequency",
                "valueDuration": {
                  "value": 30.0,
                  "unit": "days",
                  "system": "http://unitsofmeasure.org",
                  "code": "d"
                }
              }
            ]
          }
        ],
        "status": "finished",
        "type": [
          {
            "coding": [
              {
                "system": "http://snomed.info/sct",
                "code": "185463005",
                "display": "Visit out of hours (procedure)"
              }
            ]
          }
        ],
        "subject": {
          "reference": "Patient/example-rec-07-sixtythree-of-past-ninety-days"
        },
        "period": {
          "start": "2023-01-29",
          "end": "2023-01-29"
        }
      }
    },
    "item3": {
      "response": {
        "status": "200 OK"
      },
      "resource": {
        "resourceType": "Patient",
        "id": "example-rec-07-sixtythree-of-past-ninety-days",
        "extension": [
          {
            "url": "http://fhir.org/guides/cdc/opioid-cds/StructureDefinition/dataDateRoller",
            "extension": [
              {
                "url": "dateLastUpdated",
                "valueDateTime": "2023-05-01"
              },
              {
                "url": "frequency",
                "valueDuration": {
                  "value": 30.0,
                  "unit": "days",
                  "system": "http://unitsofmeasure.org",
                  "code": "d"
                }
              }
            ]
          }
        ],
        "gender": "male",
        "birthDate": "2003-05-01"
      }
    },
    "item4": null,
    "item5": null,
    "item6": null,
    "item7": null,
    "item8": null,
    "item9": null,
    "item10": null,
    "item11": null,
    "item12": null,
    "item13": null,
    "item14": null
  }
}