{
  "context": {
    "userId": "Practitioner/example",
    "patientId": "Patient/example-rec-07-sixtytwo-of-past-ninety-days",
    "encounterId": "Encounter/example-rec-07-sixtytwo-of-past-ninety-days-context",
    "selections": [
      "MedicationRequest/example-rec-07-sixtytwo-of-past-ninety-days-context"
    ],
    "draftOrders": [
      {
        "resourceType": "MedicationRequest",
        "id": "example-rec-07-sixtytwo-of-past-ninety-days-context",
        "extension": [
          {
            "url": "http://fhir.org/guides/cdc/opioid-cds/StructureDefinition/dataDateRoller",
            "extension": [
              {
                "url": "dateLastUpdated",
                "valueDateTime": "2022-04-22"
              },
              {
                "url": "frequency",
                "valueDuration": {
                  "value": 30.0,
                  "unit": "days",
                  "system": "http://unitsofmeasure.org",
                  "code": "d"
                }
              }
            ]
          }
        ],
        "status": "active",
        "intent": "order",
        "category": {
          "coding": [
            {
              "system": "http://terminology.hl7.org/CodeSystem/medicationrequest-category",
              "code": "community"
            }
          ]
        },
        "medicationCodeableConcept": {
          "coding": [
            {
              "system": "http://www.nlm.nih.gov/research/umls/rxnorm",
              "code": "1049502",
              "display": "12 HR Oxycodone Hydrochloride 10 MG Extended Release Oral Tablet"
            }
          ]
        },
        "subject": {
          "reference": "Patient/example-rec-07-sixtytwo-of-past-ninety-days"
        },
        "encounter": {
          "reference": "Encounter/example-rec-07-sixtytwo-of-past-ninety-days-context"
        },
        "authoredOn":  "2022-04-14",
        "dosageInstruction": [
          {
            "timing": {
              "repeat": {
                "frequency": 1,
                "period": 1.0,
                "periodUnit": "d"
              }
            },
            "asNeededBoolean": false,
            "doseQuantity": {
              "value": 1.0,
              "unit": "tablet"
            }
          }
        ],
        "dispenseRequest": {
          "validityPeriod": {
                    "start": "2022-04-14",
                    "end": "2022-07-14"
          },
          "numberOfRepeatsAllowed": 1,
          "expectedSupplyDuration": {
            "value": 30.0,
            "unit": "days",
            "system": "http://unitsofmeasure.org",
            "code": "d"
          }
        }
      }
    ]
  },
  "fhirServer": "http://localhost:8080/fhir",
  "hook": "order-select",
  "hookInstance": "e0493f61-6b3e-4eab-a6f9-45cd54ef5558",
  "prefetch": {
    "item1": {
      "response": {
        "status": "200 OK"
      },
      "resource": {
        "resourceType": "MedicationRequest",
        "id": "example-rec-07-sixtytwo-of-past-ninety-days-prefetch",
        "extension": [
          {
            "url": "http://fhir.org/guides/cdc/opioid-cds/StructureDefinition/dataDateRoller",
            "extension": [
              {
                "url": "dateLastUpdated",
                "valueDateTime": "2022-04-22"
              },
              {
                "url": "frequency",
                "valueDuration": {
                  "value": 30.0,
                  "unit": "days",
                  "system": "http://unitsofmeasure.org",
                  "code": "d"
                }
              }
            ]
          }
        ],
        "status": "active",
        "intent": "order",
        "category": {
          "coding": [
            {
              "system": "http://terminology.hl7.org/CodeSystem/medicationrequest-category",
              "code": "community"
            }
          ]
        },
        "medicationCodeableConcept": {
          "coding": [
            {
              "system": "http://www.nlm.nih.gov/research/umls/rxnorm",
              "code": "1049502",
              "display": "12 HR Oxycodone Hydrochloride 10 MG Extended Release Oral Tablet"
            }
          ]
        },
        "subject": {
          "reference": "Patient/example-rec-07-sixtytwo-of-past-ninety-days"
        },
        "context": {
          "reference": "Encounter/example-rec-07-sixtytwo-of-past-ninety-days-prefetch"
        },
        "authoredOn": {
          "start": "2022-01-14",
          "end": "2022-01-14"
        },
        "dosageInstruction": [
          {
            "timing": {
              "repeat": {
                "frequency": 1,
                "period": 1.0,
                "periodUnit": "d"
              }
            },
            "asNeededBoolean": false,
            "doseQuantity": {
              "value": 1.0,
              "unit": "tablet"
            }
          }
        ],
        "dispenseRequest": {
          "validityPeriod": {
                    "start": "2022-01-14",
                    "end": "2022-04-14"
          },
          "numberOfRepeatsAllowed": 1,
          "expectedSupplyDuration": {
            "value": 62.0,
            "unit": "days",
            "system": "http://unitsofmeasure.org",
            "code": "d"
          }
        }
      }
    },
    "item2": {
      "response": {
        "status": "200 OK"
      },
      "resource": {
        "resourceType": "Encounter",
        "id": "example-rec-07-sixtytwo-of-past-ninety-days-prefetch",
        "extension": [
          {
            "url": "http://fhir.org/guides/cdc/opioid-cds/StructureDefinition/dataDateRoller",
            "extension": [
              {
                "url": "dateLastUpdated",
                "valueDateTime": "2022-04-22"
              },
              {
                "url": "frequency",
                "valueDuration": {
                  "value": 30.0,
                  "unit": "days",
                  "system": "http://unitsofmeasure.org",
                  "code": "d"
                }
              }
            ]
          }
        ],
        "status": "finished",
        "subject": {
          "reference": "Patient/example-rec-07-sixtytwo-of-past-ninety-days"
        },
        "period": {
                  "start": "2022-01-14",
                  "end": "2022-01-14"
        },
        "item3": {
          "response": {
            "status": "200 OK"
          },
          "resource": {
            "resourceType": "Patient",
            "id": "example-rec-07-sixtytwo-of-past-ninety-days",
            "gender": "male",
            "birthDate": "1982-01-07"
          }
        },
        "item4": null,
        "item5": null,
        "item6": null,
        "item7": null,
        "item8": null,
        "item9": null,
        "item10": null,
        "item11": null,
        "item12": null,
        "item13": null,
        "item14": null
      }
    }
  }
}
