{
  "hookInstance": "fa44ba28-6895-4060-b7d0-9e86715e0e08",
  "fhirServer": "http://localhost:8080/fhir",
  "hook": "order-select",
  "context": {
    "userId": "Practitioner/example",
    "patientId": "Patient/example-rec-07-seven-of-past-ten-days",
    "encounterId": "Encounter/example-rec-07-seven-of-past-ten-days-context",
    "selections": [ "MedicationRequest/example-rec-07-seven-of-past-ten-days-context" ],
    "draftOrders": [
      {
        "resourceType": "MedicationRequest",
        "id": "example-rec-07-seven-of-past-ten-days-context",
        "status": "active",
        "intent": "order",
        "category": {
          "coding": [
            {
              "system": "http://terminology.hl7.org/CodeSystem/medicationrequest-category",
              "code": "community"
            }
          ]
        },
        "medicationCodeableConcept": {
          "coding": [
            {
              "system": "http://www.nlm.nih.gov/research/umls/rxnorm",
              "code": "1049502",
              "display": "12 HR Oxycodone Hydrochloride 10 MG Extended Release Oral Tablet"
            }
          ]
        },
        "subject": {
          "reference": "Patient/example-rec-07-seven-of-past-ten-days"
        },
        "encounter": {
          "reference": "Encounter/example-rec-07-seven-of-past-ten-days-context"
        },
        "authoredOn": {
          "extension": [
            {
              "url": "http://hl7.org/fhir/StructureDefinition/cqf-expression",
              "valueExpression": {
                "language": "text/cql",
                "expression": "2022-04-14"
              }
            }
          ]
        },
        "dosageInstruction": [
          {
            "timing": {
              "repeat": {
                "frequency": 1,
                "period": 1.0,
                "periodUnit": "d"
              }
            },
            "asNeededBoolean": false,
            "doseQuantity": {
              "value": 1.0,
              "unit": "tablet"
            }
          }
        ],
        "dispenseRequest": {
          "validityPeriod": {
                    "start": "2022-04-14",
                    "end": "2022-07-14"
          },
          "numberOfRepeatsAllowed": 1,
          "expectedSupplyDuration": {
            "value": 7.0,
            "unit": "days",
            "system": "http://unitsofmeasure.org",
            "code": "d"
          }
        }
      }
    ]
  },
  "prefetch": {
    "item1": {
      "response": {
        "status": "200 OK"
      },
      "resource": {
        "resourceType": "MedicationRequest",
        "id": "example-rec-07-seven-of-past-ten-days-prefetch",
        "status": "active",
        "intent": "order",
        "category": {
          "coding": [
            {
              "system": "http://terminology.hl7.org/CodeSystem/medicationrequest-category",
              "code": "community"
            }
          ]
        },
        "medicationCodeableConcept": {
          "coding": [
            {
              "system": "http://www.nlm.nih.gov/research/umls/rxnorm",
              "code": "1049502",
              "display": "12 HR Oxycodone Hydrochloride 10 MG Extended Release Oral Tablet"
            }
          ]
        },
        "subject": {
          "reference": "Patient/example-rec-07-seven-of-past-ten-days"
        },
        "context": {
          "reference": "Encounter/example-rec-07-seven-of-past-ten-days-prefetch"
        },
        "authoredOn": {
          "extension": [
            {
              "url": "http://hl7.org/fhir/StructureDefinition/cqf-expression",
              "valueExpression": {
                "language": "text/cql",
                "expression": "2022-04-04"
              }
            }
          ]
        },
        "dosageInstruction": [
          {
            "timing": {
              "repeat": {
                "frequency": 1,
                "period": 1.0,
                "periodUnit": "d"
              }
            },
            "asNeededBoolean": false,
            "doseQuantity": {
              "value": 1.0,
              "unit": "tablet"
            }
          }
        ],
        "dispenseRequest": {
          "validityPeriod": {
                    "start": "2022-04-04",
                    "end": "2022-04-14"
          },
          "numberOfRepeatsAllowed": 1,
          "expectedSupplyDuration": {
            "value": 7.0,
            "unit": "days",
            "system": "http://unitsofmeasure.org",
            "code": "d"
          }
        }
      }
    },
    "item2": {
      "response": {
        "status": "200 OK"
      },
      "resource": {
        "resourceType": "Encounter",
        "id": "example-rec-07-seven-of-past-ten-days-prefetch",
        "status": "finished",
        "subject": {
          "reference": "Patient/example-rec-07-seven-of-past-ten-days"
        },
        "period": {
                  "start": "2022-04-04",
                  "end": "2022-04-04"
        },
    "item3": {
      "response": {
        "status": "200 OK"
      },
      "resource": {
        "resourceType": "Patient",
        "id": "example-rec-07-seven-of-past-ten-days",
        "gender": "male",
        "birthDate": "1982-01-07"
      }
    },
    "item4": null,
    "item5": null,
    "item6": null,
    "item7": null,
    "item8": null,
    "item9": null,
    "item10": null,
    "item11": null,
    "item12": null,
    "item13": null,
    "item14": null
  }
}
  }
}