<Bundle xmlns="http://hl7.org/fhir">
    <id value="example-rec-10-unprescribed-opioids"/>
    <type value="transaction"/>
    <entry>
        <fullUrl value="http://localhost:8080/cqf-ruler-r4/fhir/Patient/example-rec-10-unprescribed-opioids"/>
        <resource>
            <Patient xmlns="http://hl7.org/fhir">
                <extension>
                    <url value="http://fhir.org/guides/cdc/opioid-cds/StructureDefinition/dataDateRoller"/>
                    <extension>
                        <url value="dateLastUpdated"/>
                        <valueDateTime value="2022-04-28"/>
                    </extension>
                    <extension>
                        <url value="frequency"/>"
                        <valueDuration>": {
                            <value value="30.0"/>
                            <unit value="days"/>
                            <system value="http://unitsofmeasure.org"/>
                            <code value="d"/>
                        </valueDuration>
                    </extension>
                </extension>
                <id value="example-rec-10-unprescribed-opioids"/>
                <name>
                    <family value="example-rec-10"/>
                    <given value="unprescribed-opioids"/>
                </name>
                <gender value="female"/>
                <birthDate value="1982-01-07"/>
            </Patient>
        </resource>
        <request>
            <method value="PUT"/>
            <url value="Patient/example-rec-10-unprescribed-opioids"/>
        </request>
    </entry>
    <entry>
        <fullUrl
                value="http://localhost:8080/cqf-ruler-r4/fhir/Encounter/example-rec-10-unprescribed-opioids-prefetch"/>
        <resource>
            <Encounter xmlns="http://hl7.org/fhir">
                <extension>
                    <url value="http://fhir.org/guides/cdc/opioid-cds/StructureDefinition/dataDateRoller"/>
                    <extension>
                        <url value="dateLastUpdated"/>
                        <valueDateTime value="2022-04-28"/>
                    </extension>
                    <extension>
                        <url value="frequency"/>"
                        <valueDuration>": {
                            <value value="30.0"/>
                            <unit value="days"/>
                            <system value="http://unitsofmeasure.org"/>
                            <code value="d"/>
                        </valueDuration>
                    </extension>
                </extension>
                <id value="example-rec-10-unprescribed-opioids-prefetch"/>
                <status value="finished"/>
                <class>
                    <system value="http://terminology.hl7.org/CodeSystem/v3-ActCode"/>
                    <code value="AMB"/>
                    <display value="ambulatory"/>
                </class>
                <subject>
                    <reference value="Patient/example-rec-10-unprescribed-opioids"/>
                </subject>
                <period>
                    <start>"2022-01-28"</start>
                    <end>"2022-01-28"</end>
                </period>
            </Encounter>
        </resource>
        <request>
            <method value="PUT"/>
            <url value="Encounter/example-rec-10-unprescribed-opioids-prefetch"/>
        </request>
    </entry>
    <entry>
        <fullUrl
                value="http://localhost:8080/cqf-ruler-r4/fhir/MedicationRequest/example-rec-10-unprescribed-opioids-prefetch"/>
        <resource>
            <MedicationRequest xmlns="http://hl7.org/fhir">
                <extension>
                    <url value="http://fhir.org/guides/cdc/opioid-cds/StructureDefinition/dataDateRoller"/>
                    <extension>
                        <url value="dateLastUpdated"/>
                        <valueDateTime value="2022-04-28"/>
                    </extension>
                    <extension>
                        <url value="frequency"/>"
                        <valueDuration>": {
                            <value value="30.0"/>
                            <unit value="days"/>
                            <system value="http://unitsofmeasure.org"/>
                            <code value="d"/>
                        </valueDuration>
                    </extension>
                </extension>
                <id value="example-rec-10-unprescribed-opioids-prefetch"/>
                <status value="active"/>
                <intent value="order"/>
                <category>
                    <coding>
                        <system value="http://terminology.hl7.org/CodeSystem/medicationrequest-category"/>
                        <code value="outpatient"/>
                    </coding>
                </category>
                <medicationCodeableConcept>
                    <coding>
                        <system value="http://www.nlm.nih.gov/research/umls/rxnorm"/>
                        <code value="1049502"/>
                        <display value="oxyCODONE HCl 10 MG 12HR Extended Release Oral Tablet"/>
                    </coding>
                </medicationCodeableConcept>
                <subject>
                    <reference value="Patient/example-rec-10-unprescribed-opioids"/>
                </subject>
                <encounter>
                    <reference value="Encounter/example-rec-10-unprescribed-opioids-prefetch"/>
                </encounter>
                <authoredOn value="2022-01-28"/>
                <dosageInstruction>
                    <timing>
                        <repeat>
                            <frequency value="3"/>
                            <period value="1.0"/>
                            <periodUnit value="d"/>
                        </repeat>
                    </timing>
                    <asNeededBoolean value="false"/>
                    <doseAndRate>
                        <doseQuantity>
                            <value value="1.0"/>
                            <unit value="tablet"/>
                        </doseQuantity>
                    </doseAndRate>
                </dosageInstruction>
                <dispenseRequest>
                    <validityPeriod>
                        <start>"2022-01-28"</start>
                        <end>"2022-04-28"</end>
                    </validityPeriod>
                    <numberOfRepeatsAllowed value="3"/>
                    <expectedSupplyDuration>
                        <value value="27.0"/>
                        <unit value="d"/>
                    </expectedSupplyDuration>
                </dispenseRequest>
            </MedicationRequest>
        </resource>
        <request>
            <method value="PUT"/>
            <url value="MedicationRequest/example-rec-10-unprescribed-opioids-prefetch"/>
        </request>
    </entry>
    <entry>
        <fullUrl
                value="http://localhost:8080/cqf-ruler-r4/fhir/Observation/example-rec-10-unprescribed-opioids-prefetch-codeine"/>
        <resource>
            <Observation xmlns="http://hl7.org/fhir">
                <extension>
                    <url value="http://fhir.org/guides/cdc/opioid-cds/StructureDefinition/dataDateRoller"/>
                    <extension>
                        <url value="dateLastUpdated"/>
                        <valueDateTime value="2022-04-28"/>
                    </extension>
                    <extension>
                        <url value="frequency"/>"
                        <valueDuration>": {
                            <value value="30.0"/>
                            <unit value="days"/>
                            <system value="http://unitsofmeasure.org"/>
                            <code value="d"/>
                        </valueDuration>
                    </extension>
                </extension>
                <id value="example-rec-10-unprescribed-opioids-prefetch-codeine"/>
                <status value="final"/>
                <code>
                    <coding>
                        <system value="http://loinc.org"/>
                        <code value="3507-1"/>
                        <display value="Codeine [Presence] in Urine"/>
                    </coding>
                </code>
                <subject>
                    <reference value="Patient/example-rec-10-unprescribed-opioids"/>
                </subject>
                <effectiveDateTime value="2022-04-07"/>
                <interpretation>
                    <coding>
                        <system value="http://terminology.hl7.org/CodeSystem/v3-ObservationInterpretation"/>
                        <code value="POS"/>
                    </coding>
                </interpretation>
            </Observation>
        </resource>
        <request>
            <method value="PUT"/>
            <url value="Observation/example-rec-10-unprescribed-opioids-prefetch-codeine"/>
        </request>
    </entry>
    <entry>
        <fullUrl
                value="http://localhost:8080/cqf-ruler-r4/fhir/Observation/example-rec-10-unprescribed-opioids-prefetch-oxycodone"/>
        <resource>
            <Observation xmlns="http://hl7.org/fhir">
                <extension>
                    <url value="http://fhir.org/guides/cdc/opioid-cds/StructureDefinition/dataDateRoller"/>
                    <extension>
                        <url value="dateLastUpdated"/>
                        <valueDateTime value="2022-04-28"/>
                    </extension>
                    <extension>
                        <url value="frequency"/>"
                        <valueDuration>": {
                            <value value="30.0"/>
                            <unit value="days"/>
                            <system value="http://unitsofmeasure.org"/>
                            <code value="d"/>
                        </valueDuration>
                    </extension>
                </extension>
                <id value="example-rec-10-unprescribed-opioids-prefetch-oxycodone"/>
                <status value="final"/>
                <code>
                    <coding>
                        <system value="http://loinc.org"/>
                        <code value="10998-3"/>
                        <display value="Oxycodone [Presence] in Urine"/>
                    </coding>
                </code>
                <subject>
                    <reference value="Patient/example-rec-10-unprescribed-opioids"/>
                </subject>
                <effectiveDateTime value="2022-03-31"/>
                <interpretation>
                    <coding>
                        <system value="http://terminology.hl7.org/CodeSystem/v3-ObservationInterpretation"/>
                        <code value="POS"/>
                    </coding>
                </interpretation>
            </Observation>
        </resource>
        <request>
            <method value="PUT"/>
            <url value="Observation/example-rec-10-unprescribed-opioids-prefetch-oxycodone"/>
        </request>
    </entry>
</Bundle>
