<Bundle xmlns="http://hl7.org/fhir">
    <id value="example-rec-10-no-screenings"/>
    <type value="transaction"/>
    <entry>
        <fullUrl value="http://localhost:8080/cqf-ruler-r4/fhir/Patient/example-rec-10-no-screenings"/>
        <resource>
            <Patient xmlns="http://hl7.org/fhir">
                <id value="example-rec-10-no-screenings"/>
                <extension url="http://fhir.org/guides/cdc/opioid-cds/StructureDefinition/dataDateRoller">
                    <extension url="dateLastUpdated">
                        <valueDateTime value="2022-04-28"/>
                    </extension>
                    <extension url="frequency">
                        <valueDuration>
                            <value value="30.0"/>
                            <unit value="days"/>
                            <system value="http://unitsofmeasure.org"/>
                            <code value="d"/>
                        </valueDuration>
                    </extension>
                </extension>
                <name>
                    <family value="example-rec-10"/>
                    <given value="no-screenings"/>
                </name>
                <gender value="female"/>
                <birthDate value="1982-01-07"/>
            </Patient>
        </resource>
        <request>
            <method value="PUT"/>
            <url value="Patient/example-rec-10-no-screenings"/>
        </request>
    </entry>
    <entry>
        <fullUrl value="http://localhost:8080/cqf-ruler-r4/fhir/Encounter/example-rec-10-no-screenings-prefetch"/>
        <resource>
            <Encounter xmlns="http://hl7.org/fhir">
                <id value="example-rec-10-no-screenings-prefetch"/>
                <extension url="http://fhir.org/guides/cdc/opioid-cds/StructureDefinition/dataDateRoller">
                    <extension url="dateLastUpdated">
                        <valueDateTime value="2022-04-28"/>
                    </extension>
                    <extension url="frequency">
                        <valueDuration>
                            <value value="30.0"/>
                            <unit value="days"/>
                            <system value="http://unitsofmeasure.org"/>
                            <code value="d"/>
                        </valueDuration>
                    </extension>
                </extension>
                <status value="finished"/>
                <class>
                    <system value="http://terminology.hl7.org/CodeSystem/v3-ActCode"/>
                    <code value="AMB"/>
                    <display value="ambulatory"/>
                </class>
                <subject>
                    <reference value="Patient/example-rec-10-no-screenings"/>
                </subject>
                <period>
                    <start value="2022-01-28"/>
                    <end value="2022-01-28"/>
                </period>
            </Encounter>
        </resource>
        <request>
            <method value="PUT"/>
            <url value="Encounter/example-rec-10-no-screenings-prefetch"/>
        </request>
    </entry>
    <entry>
        <fullUrl
                value="http://localhost:8080/cqf-ruler-r4/fhir/MedicationRequest/example-rec-10-no-screenings-prefetch"/>
        <resource>
            <MedicationRequest xmlns="http://hl7.org/fhir">
                <id value="example-rec-10-no-screenings-prefetch"/>
                <extension url="http://fhir.org/guides/cdc/opioid-cds/StructureDefinition/dataDateRoller">
                    <extension url="dateLastUpdated">
                        <valueDateTime value="2022-04-28"/>
                    </extension>
                    <extension url="frequency">
                        <valueDuration>
                            <value value="30.0"/>
                            <unit value="days"/>
                            <system value="http://unitsofmeasure.org"/>
                            <code value="d"/>
                        </valueDuration>
                    </extension>
                </extension>
                <status value="active"/>
                <intent value="order"/>
                <category>
                    <coding>
                        <system value="http://terminology.hl7.org/CodeSystem/medicationrequest-category"/>
                        <code value="outpatient"/>
                    </coding>
                </category>
                <medicationCodeableConcept>
                    <coding>
                        <system value="http://www.nlm.nih.gov/research/umls/rxnorm"/>
                        <code value="1049502"/>
                        <display value="oxyCODONE HCl 10 MG 12HR Extended Release Oral Tablet"/>
                    </coding>
                </medicationCodeableConcept>
                <subject>
                    <reference value="Patient/example-rec-10-no-screenings"/>
                </subject>
                <encounter>
                    <reference value="Encounter/example-rec-10-no-screenings-prefetch"/>
                </encounter>
                <authoredOn value="2022-01-28"/>
                <dosageInstruction>
                    <timing>
                        <repeat>
                            <frequency value="3"/>
                            <period value="1.0"/>
                            <periodUnit value="d"/>
                        </repeat>
                    </timing>
                    <asNeededBoolean value="false"/>
                    <doseAndRate>
                        <doseQuantity>
                            <value value="1.0"/>
                            <unit value="tablet"/>
                        </doseQuantity>
                    </doseAndRate>
                </dosageInstruction>
                <dispenseRequest>
                    <validityPeriod>
                        <start value="2022-01-28"/>
                        <end value="2022-04-28"/>
                    </validityPeriod>
                    <numberOfRepeatsAllowed value="3"/>
                    <expectedSupplyDuration>
                        <value value="27.0"/>
                        <unit value="d"/>
                    </expectedSupplyDuration>
                </dispenseRequest>
            </MedicationRequest>
        </resource>
        <request>
            <method value="PUT"/>
            <url value="MedicationRequest/example-rec-10-no-screenings-prefetch"/>
        </request>
    </entry>
</Bundle>
