<Bundle xmlns="http://hl7.org/fhir">
   <id value="example-rec-11-opioid-trigger-with-benzo"/>
   <type value="transaction"/>
   <entry>
      <fullUrl value="http://localhost:8080/cqf-ruler-r4/fhir/Patient/example-rec-11-opioid-trigger-with-benzo"/>
      <resource>
         <Patient xmlns="http://hl7.org/fhir">
            <id value="example-rec-11-opioid-trigger-with-benzo"/>
            <name>
                <family value="example-rec-10"/>
                <given value="opioid-trigger-with-benzo"/>
            </name>
            <gender value="female"/>
            <birthDate value="1982-01-07"/>
         </Patient>
      </resource>
      <request>
         <method value="PUT"/>
         <url value="Patient/example-rec-11-opioid-trigger-with-benzo"/>
      </request>
   </entry>
   <entry>
      <fullUrl value="http://localhost:8080/cqf-ruler-r4/fhir/Encounter/example-rec-11-opioid-trigger-with-benzo-prefetch"/>
      <resource>
          <Encounter xmlns="http://hl7.org/fhir">
             <id value="example-rec-11-opioid-trigger-with-benzo-prefetch"/>
             <status value="finished"/>
             <class>
                 <system value="http://terminology.hl7.org/CodeSystem/v3-ActCode"/>
                 <code value="AMB"/>
                 <display value="ambulatory"/>
             </class>
             <subject>
                <reference value="Patient/example-rec-11-opioid-trigger-with-benzo"/>
             </subject>
             <period>
                  <start>2022-03-28</start>
                  <end>2022-03-28</end>
             </period>
          </Encounter>
      </resource>
      <request>
         <method value="PUT"/>
         <url value="Encounter/example-rec-11-opioid-trigger-with-benzo-prefetch"/>
      </request>
   </entry>
   <entry>
      <fullUrl value="http://localhost:8080/cqf-ruler-r4/fhir/MedicationRequest/example-rec-11-opioid-trigger-with-benzo-prefetch"/>
      <resource>
          <MedicationRequest xmlns="http://hl7.org/fhir">
             <id value="example-rec-11-opioid-trigger-with-benzo-prefetch"/>
             <status value="active"/>
             <intent value="order"/>
             <category>
                <coding>
                   <system value="http://terminology.hl7.org/CodeSystem/medicationrequest-category"/>
                   <code value="outpatient"/>
                </coding>
             </category>
             <medicationCodeableConcept>
                <coding>
                   <system value="http://www.nlm.nih.gov/research/umls/rxnorm"/>
                   <code value="1298088"/>
                   <display value="flurazepam HCl 15 MG Oral Capsule"/>
                </coding>
             </medicationCodeableConcept>
             <subject>
                <reference value="Patient/example-rec-11-opioid-trigger-with-benzo"/>
             </subject>
             <encounter>
                <reference value="Encounter/example-rec-11-opioid-trigger-with-benzo-prefetch"/>
             </encounter>
             <authoredOn>
                <extension url="http://hl7.org/fhir/StructureDefinition/cqf-expression">
                      <valueExpression>
                          <language value="text/cql"/>
                          <expression value="2022-03-28"/>
                      </valueExpression>
                  </extension>
             </authoredOn>
             <dosageInstruction>
                <timing>
                   <repeat>
                      <frequency value="1"/>
                      <period value="1.0"/>
                      <periodUnit value="d"/>
                   </repeat>
                </timing>
                <asNeededBoolean value="false"/>
                <doseAndRate>
                    <doseQuantity>
                       <value value="1.0"/>
                       <unit value="capsule"/>
                    </doseQuantity>
                </doseAndRate>
             </dosageInstruction>
             <dispenseRequest>
                <validityPeriod>
                  <start>2022-03-28</start>
                  <end>2022-07-25</end>
                </validityPeriod>
                <numberOfRepeatsAllowed value="3"/>
                <expectedSupplyDuration>
                   <value value="30.0"/>
                   <unit value="d"/>
                </expectedSupplyDuration>
             </dispenseRequest>
          </MedicationRequest>
      </resource>
      <request>
         <method value="PUT"/>
         <url value="MedicationRequest/example-rec-11-opioid-trigger-with-benzo-prefetch"/>
      </request>
   </entry>
</Bundle>
