<Bundle xmlns="http://hl7.org/fhir">
   <id value="example-rec-11-benzo-trigger-with-opioid"/>
   <type value="transaction"/>
   <entry>
      <fullUrl value="http://localhost:8080/fhir/Patient/example-rec-11-benzo-trigger-with-opioid"/>
      <resource>
          <Patient xmlns="http://hl7.org/fhir">
             <id value="example-rec-11-benzo-trigger-with-opioid"/>
             <name>
                 <family value="example-rec-10"/>
                 <given value="benzo-trigger-with-opioid"/>
             </name>
             <gender value="female"/>
             <birthDate value="1982-01-07"/>
          </Patient>
      </resource>
      <request>
         <method value="PUT"/>
         <url value="Patient/example-rec-11-benzo-trigger-with-opioid"/>
      </request>
   </entry>
   <entry>
      <fullUrl value="http://localhost:8080/fhir/Encounter/example-rec-11-benzo-trigger-with-opioid-prefetch"/>
      <resource>
          <Encounter xmlns="http://hl7.org/fhir">
             <id value="example-rec-11-benzo-trigger-with-opioid-prefetch"/>
              <extension url="http://fhir.org/guides/cdc/opioid-cds/StructureDefinition/dataDateRoller">
     <extension url="dateLastUpdated">
       <valueDateTime value="2022-04-22" />
     </extension>
     <extension url="frequency">
       <valueDuration>
         <value value="30.0" />
         <unit value="days" />
         <system value="http://unitsofmeasure.org" />
         <code value="d" />
       </valueDuration>
     </extension>
   </extension>
             <status value="finished"/>
             <class>
                 <system value="http://terminology.hl7.org/CodeSystem/v3-ActCode"/>
                 <code value="AMB"/>
                 <display value="ambulatory"/>
             </class>
             <subject>
                <reference value="Patient/example-rec-11-benzo-trigger-with-opioid"/>
             </subject>
             <period>
                  <start>2022-03-28</start>
                  <end>2022-03-28</end>
             </period>
          </Encounter>
      </resource>
      <request>
         <method value="PUT"/>
         <url value="Encounter/example-rec-11-benzo-trigger-with-opioid-prefetch"/>
      </request>
   </entry>
   <entry>
      <fullUrl value="http://localhost:8080/fhir/MedicationRequest/example-rec-11-benzo-trigger-with-opioid-prefetch"/>
      <resource>
          <MedicationRequest xmlns="http://hl7.org/fhir">
             <id value="example-rec-11-benzo-trigger-with-opioid-prefetch"/>
              <extension url="http://fhir.org/guides/cdc/opioid-cds/StructureDefinition/dataDateRoller">
     <extension url="dateLastUpdated">
       <valueDateTime value="2022-04-22" />
     </extension>
     <extension url="frequency">
       <valueDuration>
         <value value="30.0" />
         <unit value="days" />
         <system value="http://unitsofmeasure.org" />
         <code value="d" />
       </valueDuration>
     </extension>
   </extension>
             <status value="active"/>
             <intent value="order"/>
             <category>
                <coding>
                   <system value="http://terminology.hl7.org/CodeSystem/medicationrequest-category"/>
                   <code value="outpatient"/>
                </coding>
             </category>
             <medicationCodeableConcept>
                <coding>
                   <system value="http://www.nlm.nih.gov/research/umls/rxnorm"/>
                   <code value="1049502"/>
                   <display value="oxyCODONE HCl 10 MG 12HR Extended Release Oral Tablet"/>
                </coding>
             </medicationCodeableConcept>
             <subject>
                <reference value="Patient/example-rec-11-benzo-trigger-with-opioid"/>
             </subject>
             <encounter>
                <reference value="Encounter/example-rec-11-benzo-trigger-with-opioid-prefetch"/>
             </encounter>
             <authoredOn>
                <authoredOn value = "2022-03-28"/>
             </authoredOn>
             <dosageInstruction>
                <timing>
                   <repeat>
                      <frequency value="1"/>
                      <period value="1.0"/>
                      <periodUnit value="d"/>
                   </repeat>
                </timing>
                <asNeededBoolean value="false"/>
                <doseAndRate>
                    <doseQuantity>
                       <value value="1.0"/>
                       <unit value="tablet"/>
                    </doseQuantity>
                </doseAndRate>
             </dosageInstruction>
             <dispenseRequest>
                <validityPeriod>
                  <start>2022-03-28</start>
                  <end>2022-07-25</end>
                </validityPeriod>
                <numberOfRepeatsAllowed value="3"/>
                <expectedSupplyDuration>
                   <value value="30.0"/>
                   <unit value="d"/>
                </expectedSupplyDuration>
             </dispenseRequest>
          </MedicationRequest>
      </resource>
      <request>
         <method value="PUT"/>
         <url value="MedicationRequest/example-rec-11-benzo-trigger-with-opioid-prefetch"/>
      </request>
   </entry>
</Bundle>
