<Bundle xmlns="http://hl7.org/fhir">
   <id value="example-rec-10-missing-prescribed-opioids"/>
   <type value="transaction"/>
   <entry>
      <fullUrl value="http://localhost:8080/fhir/Patient/example-rec-10-missing-prescribed-opioids"/>
      <resource>
          <Patient xmlns="http://hl7.org/fhir">
             <id value="example-rec-10-missing-prescribed-opioids"/>
                <name>
                    <family value="example-rec-10"/>
                    <given value="missing-prescribed-opioids"/>
                </name>
             <gender value="female"/>
             <birthDate value="1982-01-07"/>
          </Patient>

      </resource>
      <request>
         <method value="PUT"/>
         <url value="Patient/example-rec-10-missing-prescribed-opioids"/>
      </request>
   </entry>
   <entry>
      <fullUrl value="http://localhost:8080/fhir/Encounter/example-rec-10-missing-prescribed-opioids-prefetch"/>
      <resource>
          <Encounter xmlns="http://hl7.org/fhir">
             <id value="example-rec-10-missing-prescribed-opioids-prefetch"/>
             <status value="finished"/>
             <class>
                 <system value="http://terminology.hl7.org/CodeSystem/v3-ActCode"/>
                 <code value="AMB"/>
                 <display value="ambulatory"/>
             </class>
             <subject>
                <reference value="Patient/example-rec-10-missing-prescribed-opioids"/>
             </subject>
             <period>
                  <start>2022-01-25</start>
                  <end>2022-01-25</end>
             </period>
          </Encounter>
      </resource>
      <request>
         <method value="PUT"/>
         <url value="Encounter/example-rec-10-missing-prescribed-opioids-prefetch"/>
      </request>
   </entry>
   <entry>
      <fullUrl value="http://localhost:8080/fhir/MedicationRequest/example-rec-10-missing-prescribed-opioids-prefetch"/>
      <resource>
          <MedicationRequest xmlns="http://hl7.org/fhir">
             <id value="example-rec-10-missing-prescribed-opioids-prefetch"/>
             <status value="active"/>
             <intent value="order"/>
             <category>
                <coding>
                   <system value="http://terminology.hl7.org/CodeSystem/medicationrequest-category"/>
                   <code value="outpatient"/>
                </coding>
             </category>
             <medicationCodeableConcept>
                <coding>
                   <system value="http://www.nlm.nih.gov/research/umls/rxnorm"/>
                   <code value="1049502"/>
                   <display value="oxyCODONE HCl 10 MG 12HR Extended Release Oral Tablet"/>
                </coding>
             </medicationCodeableConcept>
             <subject>
                <reference value="Patient/example-rec-10-missing-prescribed-opioids"/>
             </subject>
             <encounter>
                <reference value="Encounter/example-rec-10-missing-prescribed-opioids-prefetch"/>
             </encounter>
             <authoredOn>
                 <extension url="http://hl7.org/fhir/StructureDefinition/cqf-expression">
                     <valueExpression>
                         <language value="text/cql"/>
                         <expression value="2022-01-25"/>
                     </valueExpression>
                </extension>
             </authoredOn>
             <dosageInstruction>
                <timing>
                   <repeat>
                      <frequency value="3"/>
                      <period value="1.0"/>
                      <periodUnit value="d"/>
                   </repeat>
                </timing>
                <asNeededBoolean value="false"/>
                <doseAndRate>
                    <doseQuantity>
                       <value value="1.0"/>
                       <unit value="tablet"/>
                    </doseQuantity>
                </doseAndRate>
             </dosageInstruction>
             <dispenseRequest>
                <validityPeriod>
                  <start>2022-01-25</start>
                  <end>2022-04-25</end>
                </validityPeriod>
                <numberOfRepeatsAllowed value="3"/>
                <expectedSupplyDuration>
                   <value value="27.0"/>
                   <unit value="d"/>
                </expectedSupplyDuration>
             </dispenseRequest>
          </MedicationRequest>
      </resource>
      <request>
         <method value="PUT"/>
         <url value="MedicationRequest/example-rec-10-missing-prescribed-opioids-prefetch"/>
      </request>
   </entry>
   <entry>
      <fullUrl value="http://localhost:8080/fhir/Observation/example-rec-10-missing-prescribed-opioids-prefetch"/>
      <resource>
          <Observation xmlns="http://hl7.org/fhir">
             <id value="example-rec-10-missing-prescribed-opioids-prefetch"/>
             <status value="final"/>
             <code>
                <coding>
                   <system value="http://loinc.org"/>
                   <code value="14184-6"/>
                   <display value="Atropine [Presence] in Urine"/>
                </coding>
             </code>
             <subject>
                <reference value="Patient/example-rec-10-missing-prescribed-opioids"/>
             </subject>
             <effectiveDateTime>
                <extension url="http://hl7.org/fhir/StructureDefinition/cqf-expression">
                      <valueExpression>
                          <language value="text/cql"/>
                          <expression value="2022-03-28"/>
                      </valueExpression>
                  </extension>
             </effectiveDateTime>
             <interpretation>
                <coding>
                   <system value="http://terminology.hl7.org/CodeSystem/v3-ObservationInterpretation"/>
                   <code value="POS"/>
                </coding>
             </interpretation>
          </Observation>
      </resource>
      <request>
         <method value="PUT"/>
         <url value="Observation/example-rec-10-missing-prescribed-opioids-prefetch"/>
      </request>
   </entry>
</Bundle>
