{
  "hookInstance": "514b3e2f-2daf-4045-9c56-ad891fc6e233",
  "fhirServer": "http://localhost:8080/fhir",
  "hook": "order-select",
  "context": {
    "userId": "Practitioner/example",
    "patientId": "Patient/example-rec-10-end-of-life-med-exclusion",
    "encounterId": "Encounter/example-rec-10-end-of-life-med-exclusion-context",
    "selections": [ "MedicationRequest/example-rec-10-end-of-life-med-exclusion-context" ],
    "draftOrders":
      {
        "resourceType": "MedicationRequest",
        "id": "example-rec-10-end-of-life-med-exclusion-context",
        "extension": [
          {
            "url": "http://fhir.org/guides/cdc/opioid-cds/StructureDefinition/dataDateRoller",
            "extension": [
              {
                "url": "dateLastUpdated",
                "valueDateTime": "2022-04-22"
              },
              {
                "url": "frequency",
                "valueDuration": {
                  "value": 30.0,
                  "unit": "days",
                  "system": "http://unitsofmeasure.org",
                  "code": "d"
                }
              }
            ]
          }
        ],
        "status": "active",
        "intent": "order",
        "category": [
            {
              "coding": [
                {
                  "system": "http://terminology.hl7.org/CodeSystem/medicationrequest-category",
                  "code": "community"
                }
              ]
            }
        ],
        "medicationCodeableConcept": {
          "coding": [
            {
              "system": "http://www.nlm.nih.gov/research/umls/rxnorm",
              "code": "1012727",
              "display": "Carbinoxamine maleate 0.4 MG/ML / Hydrocodone Bitartrate 1 MG/ML / Pseudoephedrine Hydrochloride 6 MG/ML Oral Solution"
            }
          ]
        },
        "subject": {
          "reference": "Patient/example-rec-10-end-of-life-med-exclusion"
        },
        "encounter": {
          "reference": "Encounter/example-rec-10-end-of-life-med-exclusion-context"
        },
        "authoredOn": "2022-04-14",
        "dosageInstruction": [
          {
            "timing": {
              "repeat": {
                "frequency": 1,
                "period": 12.0,
                "periodUnit": "d"
              }
            },
            "asNeededBoolean": false,
            "doseAndRate": [
                {
                    "doseQuantity": {
                      "value": 5.0,
                      "unit": "mL",
                      "system" : "http://unitsofmeasure.org",
                      "code" : "{mL}"
                    }
                }
            ]
          }
        ],
        "dispenseRequest": {
          "validityPeriod": {
                    "start": "2022-04-14",
                    "end": "2022-07-14"
          },
          "numberOfRepeatsAllowed": 3,
          "expectedSupplyDuration": {
            "value": 30.0,
            "unit": "days",
            "system": "http://unitsofmeasure.org",
            "code": "d"
          }
        }
        }
  },
  "prefetch": {
    "item1": {
      "response": {
        "status": "200 OK"
      },
      "resource": {
        "resourceType": "Patient",
        "id": "example-rec-10-end-of-life-med-exclusion",
        "extension": [
          {
            "url": "http://fhir.org/guides/cdc/opioid-cds/StructureDefinition/dataDateRoller",
            "extension": [
              {
                "url": "dateLastUpdated",
                "valueDateTime": "2022-04-22"
              },
              {
                "url": "frequency",
                "valueDuration": {
                  "value": 30.0,
                  "unit": "days",
                  "system": "http://unitsofmeasure.org",
                  "code": "d"
                }
              }
            ]
          }
        ],
        "gender": "female",
        "birthDate": "1982-01-07"
      }
    },
    "item2": null,
    "item3": null,
    "item4": null,
    "item5": {
      "response": {
        "status": "200 OK"
      },
      "resource": {
        "resourceType": "Condition",
        "id": "EndOfLifeCondition",
        "extension": [
          {
            "url": "http://fhir.org/guides/cdc/opioid-cds/StructureDefinition/dataDateRoller",
            "extension": [
              {
                "url": "dateLastUpdated",
                "valueDateTime": "2022-04-22"
              },
              {
                "url": "frequency",
                "valueDuration": {
                  "value": 30.0,
                  "unit": "days",
                  "system": "http://unitsofmeasure.org",
                  "code": "d"
                }
              }
            ]
          }
        ],
        "category": {
          "coding": [
            {
              "system": "http://terminology.hl7.org/CodeSystem/condition-category",
              "code": "encounter-diagnosis",
              "display": "Encounter Diagnosis"
            }
          ]
        },
        "clinicalStatus": {
          "coding": [
            {
              "system": "http://terminology.hl7.org/CodeSystem/condition-clinical",
              "code": "active",
              "display": "Active Condition"
            }
          ]
        },
        "verificationStatus": {
          "code": {
            "coding": [
              {
                "system": "http://terminology.hl7.org/CodeSystem/condition-ver-status",
                "code": "confirmed",
                "display": "Confirmed"
              }
            ]
          }
        },
        "subject": {
          "reference": "Patient/example-rec-10-end-of-life-med-exclusion"
        },
        "code": {
          "coding": [
            {
              "system": "http://snomed.info/sct",
              "version": "2021-03",
              "code": "254612002",
              "display": "Carcinoma of endocrine pancreas"
            }
          ]
        },
        "recordedDate": "2022-02-13"
      }
    },
    "item6": null,
    "item7": null,
    "item8": null,
    "item9": null
  }
}
